File: Data_XRD/baseline_LiF.csv
5.03,13.8867
5.09,32.5199
5.15,21.4531
5.21,15.553
5.27,16.2861
5.33,-0.379178
5.39,9.61742
5.45,21.6676
5.51,23.6177
5.57,30.0012
5.63,9.0513
5.69,20.2348
5.75,27.3516
5.81,25.6017
5.87,18.2518
5.93,28.7397
5.99,33.8449
6.05,22.2834
6.11,28.3886
6.17,-5.75481
6.23,14.5102
6.29,27.2384
6.35,13.2665
6.41,27.6946
6.47,17.6894
6.53,26.7842
6.59,21.1124
6.65,36.4405
6.71,24.4686
6.77,30.0968
6.83,24.556
6.89,6.51293
6.95,40.8364
7.01,39.6533
7.07,6.40342
7.13,28.7536
7.19,-1.79626
7.25,29.9018
7.31,34.5513
7.37,31.7007
7.43,16.8168
7.49,19.2329
7.55,16.349
7.61,46.0651
7.67,9.41455
7.73,19.5306
7.79,18.3134
7.85,11.0295
7.91,42.9123
7.97,27.9284
8.03,10.5778
8.09,28.9939
8.15,37.8767
8.21,31.9595
8.27,18.7089
8.33,35.6917
8.39,28.9078
8.45,42.1572
8.51,33.9733
8.57,27.8227
8.63,36.6388
8.69,9.7216
8.75,17.6422
8.81,32.2984
8.87,18.1879
8.93,21.8775
8.99,42.2003
9.05,18.5606
9.11,35.1959
9.17,25.5644
9.23,21.3996
9.29,28.2349
9.35,13.3701
9.41,26.8573
9.47,20.8232
9.53,19.4891
9.59,21.455
9.65,26.0542
9.71,23.1534
9.77,26.1527
9.83,18.2852
9.89,34.7511
9.95,27.717
10.01,34.9162
10.07,20.3821
10.13,17.9147
10.19,20.2806
10.25,18.3131
10.31,11.8124
10.37,35.9449
10.43,39.7108
10.49,24.8434
10.55,13.2093
10.61,30.9085
10.67,17.9077
10.73,8.99495
10.79,35.0235
10.85,10.8187
10.91,15.3731
10.97,31.0069
11.03,32.2075
11.09,26.4097
11.15,25.4517
11.21,20.1605
11.27,16.1026
11.33,14.378
11.39,37.9201
11.45,6.56216
11.51,13.3709
11.57,20.313
11.63,12.5551
11.69,10.4638
11.75,9.43924
11.81,-0.618668
11.87,3.70173
11.93,14.2652
11.99,18.3288
12.05,34.6923
12.11,15.2891
12.17,30.4527
12.23,-0.517152
12.29,11.6054
12.35,6.06464
12.41,30.9238
12.47,-1.07131
12.53,6.3638
12.59,5.46557
12.65,19.9007
12.71,16.8024
12.77,19.2376
12.83,11.032
12.89,23.2829
12.95,18.227
13.01,37.1711
13.07,4.41517
13.13,26.2593
13.19,18.07
13.25,23.6808
13.31,5.19159
13.37,18.4357
13.43,18.1465
13.49,18.2906
13.55,21.168
13.61,27.6454
13.67,14.0229
13.73,13.067
13.79,20.2111
13.85,12.7184
13.91,18.1183
13.97,14.0808
14.03,35.5059
14.09,15.4309
14.15,21.856
14.21,18.9144
14.27,2.74738
14.33,17.983
14.39,11.6853
14.45,21.6876
14.51,20.0232
14.57,30.5921
14.63,8.62772
14.69,25.53
14.75,27.0656
14.81,9.33742
14.87,8.64545
14.93,6.35347
14.99,27.2615
15.05,24.6837
15.11,25.3868
15.17,16.0899
15.23,28.493
15.29,17.2961
15.35,26.3659
15.41,13.7023
15.47,4.23784
15.53,34.1599
15.59,20.7487
15.65,6.90412
15.71,13.4929
15.77,8.5483
15.83,28.9037
15.89,36.3592
15.95,5.78125
16.01,20.2085
16.07,21.4389
16.13,23.236
16.19,25.6665
16.25,24.0636
16.31,19.6941
16.37,26.1579
16.43,8.05497
16.49,32.4521
16.55,15.7492
16.61,15.0463
16.67,9.54
16.73,10.7996
16.79,24.7273
16.85,19.2057
16.91,21.9508
16.97,22.9959
17.03,20.1076
17.09,12.486
17.15,33.4977
17.21,9.77614
17.27,33.8879
17.33,6.06627
17.39,24.5447
17.45,17.8231
17.51,14.7681
17.57,13.9799
17.63,12.6138
17.69,16.3853
17.75,0.759204
17.81,16.6454
17.87,21.865
17.93,1.65123
17.99,25.2365
18.05,14.0885
18.11,28.2071
18.17,29.4457
18.23,8.87086
18.29,20.7294
18.35,0.987843
18.41,10.1057
18.47,19.6568
18.53,3.64135
18.59,6.97175
18.65,26.9945
18.71,18.1173
18.77,16.4733
18.83,18.4294
18.89,23.655
18.95,22.182
19.01,26.609
19.07,22.7693
19.13,13.563
19.19,19.49
19.25,22.4503
19.31,21.775
19.37,27.9581
19.43,10.7564
19.49,23.8517
19.55,20.7459
19.61,23.5382
19.67,16.2304
19.73,11.9226
19.79,22.8148
19.85,20.4737
19.91,10.4659
19.97,19.1914
20.03,22.5836
20.09,15.0758
20.15,24.3347
20.21,35.3269
20.27,20.5191
20.33,11.078
20.39,14.9036
20.45,12.5019
20.51,49.4266
20.57,38.1846
20.63,29.8093
20.69,25.4339
20.75,15.5586
20.81,18.4166
20.87,14.1413
20.93,0.555028
20.99,8.54761
21.05,24.4068
21.11,26.7661
21.17,16.8587
21.23,12.5512
21.29,32.8438
21.35,3.30306
21.41,26.629
21.47,10.7549
21.53,5.58079
21.59,10.24
21.65,10.0659
21.71,27.5939
21.77,-0.330779
21.83,9.6484
21.89,25.8276
21.95,12.9068
22.01,13.1193
22.07,4.73181
22.13,13.8139
22.19,32.5698
22.25,22.4258
22.31,10.6817
22.37,10.3044
22.43,18.1936
22.49,18.0496
22.55,2.83889
22.61,20.1284
22.67,13.258
22.73,6.75431
22.79,19.4172
22.85,16.0802
22.91,11.476
22.97,12.3384
23.03,10.9007
23.09,2.89639
23.15,19.0514
23.21,36.7408
23.27,27.4968
23.33,22.1861
23.39,21.2754
23.45,14.9981
23.51,16.1208
23.57,12.5592
23.63,-1.32769
23.69,2.18767
23.75,23.503
23.81,5.65174
23.87,13.7338
23.93,17.1609
23.99,7.92736
24.05,10.2604
24.11,9.7602
24.17,17.1933
24.23,8.29303
24.29,0.459447
24.35,17.3535
24.41,7.91425
24.47,5.99921
24.53,14.3824
24.59,9.09886
24.65,20.5153
24.71,11.1652
24.77,17.3483
24.83,5.20618
24.89,25.0652
24.95,13.6243
25.01,14.1167
25.07,25.7424
25.13,9.26815
25.19,19.2272
25.25,31.4529
25.31,7.07866
25.37,28.371
25.43,8.66344
25.49,13.1892
25.55,16.1482
25.61,9.04062
25.67,11.833
25.73,30.6587
25.79,9.2178
25.85,18.3435
25.91,16.4026
25.97,21.7616
26.03,2.85404
26.09,30.4432
26.15,14.2966
26.21,17.2499
26.27,26.5366
26.33,14.1567
26.39,-1.90828
26.45,21.9534
26.51,12.8665
26.57,1.48263
26.63,4.25439
26.69,7.25948
26.75,27.2979
26.81,27.303
26.87,16.2081
26.93,17.0799
26.99,6.75162
27.05,22.0567
27.11,6.29514
27.17,20.1669
27.23,19.9387
27.29,22.0438
27.35,14.5489
27.41,25.0806
27.47,-0.535916
27.53,8.84149
27.59,20.1856
27.65,28.4297
27.71,23.0948
27.77,2.78105
27.83,19.9339
27.89,11.1868
27.95,1.84393
28.01,16.007
28.07,3.63993
28.13,5.10616
28.19,22.8057
28.25,25.472
28.31,22.1382
28.37,4.23777
28.43,3.97066
28.49,21.2036
28.55,14.7698
28.61,25.636
28.67,28.7356
28.73,23.887
28.79,14.5903
28.85,3.82685
28.91,11.0705
28.97,13.3983
29.03,7.56878
29.09,13.306
29.15,13.2765
29.21,10.3137
29.27,12.4359
29.33,20.534
29.39,12.0988
29.45,22.0302
29.51,5.6617
29.57,1.35981
29.63,1.16726
29.69,5.75812
29.75,16.849
29.81,12.7398
29.87,9.76401
29.93,16.2215
29.99,21.8979
30.05,16.3263
30.11,19.4548
30.17,4.82585
30.23,11.7154
30.29,11.2717
30.35,13.1946
30.41,14.0176
30.47,11.5072
30.53,12.8634
30.59,9.78637
30.65,7.27597
30.71,5.18711
30.77,8.7541
30.83,8.44065
30.89,30.7605
30.95,15.2138
31.01,3.90031
31.07,4.61714
31.13,2.61893
31.19,9.28888
31.25,17.7255
31.31,10.0621
31.37,6.73204
31.43,6.76866
31.49,17.8053
31.55,16.2419
31.61,20.2452
31.67,14.3484
31.73,15.6517
31.79,5.62165
31.85,16.6916
31.91,10.1615
31.97,10.6262
32.03,9.13865
32.09,19.3045
32.15,15.837
32.21,8.73613
32.27,4.23529
32.33,22.8344
32.39,10.3336
32.45,0.8661
32.51,25.7775
32.57,5.7477
32.63,1.93557
32.69,6.78851
32.75,9.24146
32.81,4.8944
32.87,11.614
32.93,8.13361
32.99,15.5199
33.05,8.50616
33.11,12.9924
33.17,-1.32075
33.23,26.5558
33.29,5.39907
33.35,8.40899
33.41,19.7522
33.47,19.5288
33.53,2.63873
33.59,14.3486
33.65,3.22521
33.71,12.4338
33.77,3.79303
33.83,8.95224
33.89,9.34477
33.95,10.1706
34.01,11.3299
34.07,4.65572
34.13,24.8757
34.19,5.73704
34.25,8.73171
34.31,2.89307
34.37,11.9709
34.43,6.81204
34.49,6.60978
34.55,23.7192
34.61,20.1619
34.67,22.1712
34.73,26.614
34.79,45.2233
34.85,37.3327
34.91,21.3421
34.97,11.3848
35.03,15.5609
35.09,5.7614
35.15,11.9844
35.21,19.8407
35.27,13.097
35.33,14.42
35.39,9.97626
35.45,-0.400763
35.51,10.3647
35.57,14.5636
35.63,9.86238
35.69,16.3279
35.75,12.1934
35.81,0.359417
35.87,1.88295
35.93,15.2398
35.99,18.8967
36.05,11.7869
36.11,16.3771
36.17,7.83392
36.23,17.7574
36.29,13.1501
36.35,5.25847
36.41,7.56682
36.47,22.5426
36.53,12.6704
36.59,11.9982
36.65,2.59962
36.71,-0.152152
36.77,1.23098
36.83,5.23654
36.89,7.2044
36.95,1.33007
37.01,6.58905
37.07,1.58138
37.13,-4.7806
37.19,13.5751
37.25,6.93086
37.31,28.0533
37.37,24.209
37.43,30.2314
37.49,21.2538
37.55,23.9095
37.61,10.1112
37.67,15.3256
37.73,9.67321
37.79,0.920877
37.85,-1.77614
37.91,-1.90983
37.97,14.7603
38.03,7.64025
38.09,-2.79667
38.15,0.655518
38.21,-5.36304
38.27,22.8728
38.33,92.4837
38.39,254.496
38.45,914.608
38.51,2225.19
38.57,3811.27
38.63,6193.48
38.69,7710.09
38.75,4035.94
38.81,2756.01
38.87,335.427
38.93,104.039
38.99,41.5513
39.05,8.09136
39.11,2.01751
39.17,8.75392
39.23,13.7239
39.29,4.21833
39.35,-7.23824
39.41,11.5314
39.47,-7.10331
39.53,-3.63866
39.59,3.32969
39.65,-14.2744
39.71,18.6559
39.77,1.96974
39.83,-0.703052
39.89,11.933
39.95,13.6658
40.01,1.39873
40.07,13.1045
40.13,4.23811
40.19,11.4384
40.25,24.572
40.31,16.4724
40.37,33.6393
40.43,28.8396
40.49,13.2066
40.55,1.03969
40.61,10.8179
40.67,25.6295
40.73,20.2744
40.79,3.1206
40.85,13.7732
40.91,8.02586
40.97,8.81183
41.03,12.7645
41.09,6.55044
41.15,10.2697
41.21,9.58903
41.27,4.84167
41.33,5.82763
41.39,3.48026
41.45,12.2996
41.51,3.71909
41.57,14.2698
41.63,3.88724
41.69,12.338
41.75,10.4221
41.81,0.686097
41.87,20.291
41.93,6.02929
41.99,12.3009
42.05,9.67248
42.11,13.2107
42.17,7.08234
42.23,17.1206
42.29,3.25887
42.35,16.9629
42.41,12.5667
42.47,13.9373
42.53,12.2411
42.59,-3.67156
42.65,15.7681
42.71,7.67311
42.77,6.91147
42.83,7.61648
42.89,18.8215
42.95,11.7265
43.01,0.0315458
43.07,-0.772909
43.13,2.10594
43.19,-7.82692
43.25,9.91905
43.31,15.2312
43.37,17.9434
43.43,19.689
43.49,19.0345
43.55,19.1133
43.61,18.5255
43.67,12.0711
43.73,16.9833
43.79,3.99544
43.85,11.7679
43.91,5.15244
43.97,4.50784
44.03,9.34315
44.09,6.17247
44.15,-5.30776
44.21,0.0713588
44.27,-6.07978
44.33,-1.67116
44.39,0.621183
44.45,-0.962394
44.51,5.49565
44.57,48.8349
44.63,109.648
44.69,348.594
44.75,1225.01
44.81,2844.95
44.87,4834.93
44.93,7520.01
44.99,8340.99
45.05,4199.34
45.11,3333.85
45.17,576.266
45.23,153.546
45.29,59.892
45.35,4.22848
45.41,10.8094
45.47,5.32289
45.53,6.10745
45.59,-7.86641
45.65,4.54339
45.71,-13.1649
45.77,4.12227
45.83,8.20851
45.89,-4.08613
45.95,-2.12279
46.01,4.37415
46.07,3.49972
46.13,2.63638
46.19,11.5987
46.25,4.95635
46.31,9.58068
46.37,5.72738
46.43,3.94458
46.49,3.57577
46.55,5.00696
46.61,11.5752
46.67,4.01371
46.73,2.13867
46.79,11.8532
46.85,2.52979
46.91,3.17301
46.97,6.17079
47.03,3.29948
47.09,3.16151
47.15,5.91634
47.21,8.92894
47.27,12.2415
47.33,12.9208
47.39,4.76675
47.45,-2.15995
47.51,13.2798
47.57,14.6681
47.63,14.8564
47.69,4.34473
47.75,12.233
47.81,5.45468
47.87,21.7763
47.93,13.2646
47.99,8.85295
48.05,4.66018
48.11,6.67191
48.17,11.917
48.23,10.9287
48.29,5.72161
48.35,6.91025
48.41,8.53221
48.47,11.2187
48.53,17.1341
48.59,15.1495
48.65,12.0316
48.71,6.78039
48.77,14.7625
48.83,11.6446
48.89,11.66
48.95,6.6421
49.01,6.79087
49.07,13.373
49.13,24.7217
49.19,15.5372
49.25,15.0859
49.31,12.1424
49.37,4.88107
49.43,13.7881
49.49,3.54791
49.55,7.40777
49.61,12.501
49.67,8.09416
49.73,2.82068
49.79,10.5472
49.85,8.80707
49.91,16.7669
49.97,9.62679
50.03,13.7866
50.09,16.0132
50.15,13.9332
50.21,8.64017
50.27,10.8138
50.33,9.3208
50.39,1.29445
50.45,13.4792
50.51,9.56391
50.57,24.0486
50.63,4.6667
50.69,4.8532
50.75,6.04852
50.81,4.11051
50.87,6.63917
50.93,4.61942
50.99,17.1225
51.05,15.8588
51.11,13.5952
51.17,15.3982
51.23,6.76791
51.29,18.5709
51.35,7.97397
51.41,4.1045
51.47,12.0234
51.53,16.8756
51.59,12.0945
51.65,12.7467
51.71,4.99888
51.77,14.4844
51.83,15.2033
51.89,14.4888
51.95,7.12391
52.01,5.84565
52.07,6.42244
52.13,11.0659
52.19,8.37602
52.25,16.0195
52.31,13.4296
52.37,7.10639
52.43,8.44986
52.49,6.35998
52.55,14.3368
52.61,13.9136
52.67,12.2237
52.73,19.2338
52.79,1.70032
52.85,8.38206
52.91,14.5971
52.97,8.77887
53.03,9.02728
53.09,0.0791362
53.15,12.8591
53.21,14.6724
53.27,10.2857
53.33,9.9657
53.39,17.479
53.45,4.32565
53.51,6.27229
53.57,13.5189
53.63,11.0989
53.69,15.0455
53.75,21.3255
53.81,13.8388
53.87,10.3521
53.93,8.06544
53.99,7.17874
54.05,9.19205
54.11,8.07202
54.17,6.58533
54.23,18.6652
54.29,17.6442
54.35,16.4957
54.41,2.52525
54.47,17.2548
54.53,9.81772
54.59,9.34729
54.65,10.5102
54.71,6.90644
54.77,4.26587
54.83,13.5517
54.89,4.96819
54.95,5.70469
55.01,10.0079
55.07,7.10202
55.13,9.25382
55.19,9.43894
55.25,0.6574
55.31,8.28204
55.37,6.77334
55.43,14.2647
55.49,0.855958
55.55,4.09875
55.61,8.54153
55.67,11.3177
55.73,6.76045
55.79,11.5366
55.85,5.87935
55.91,11.3555
55.97,11.8316
56.03,6.27438
56.09,7.3505
56.15,16.9266
56.21,12.2361
56.27,5.97886
56.33,6.38832
56.39,7.43111
56.45,15.3739
56.51,12.9833
56.57,9.7928
56.63,10.1023
56.69,3.1117
56.75,8.02116
56.81,5.36395
56.87,13.5768
56.93,13.9965
56.99,10.8162
57.05,16.0359
57.11,-1.63945
57.17,9.83335
57.23,11.0706
57.29,3.87442
57.35,11.9783
57.41,4.88216
57.47,15.8527
57.53,12.0139
57.59,9.85631
57.65,12.7654
57.71,7.57451
57.77,7.91695
57.83,11.9594
57.89,14.7685
57.95,12.3109
58.01,11.5867
58.07,17.2291
58.13,12.4716
58.19,0.153753
58.25,22.8772
58.31,0.76728
58.37,18.9744
58.43,11.569
58.49,21.1303
58.55,18.6916
58.61,10.7863
58.67,10.8676
58.73,14.7022
58.79,7.03691
58.85,16.9382
58.91,14.2396
58.97,11.2742
59.03,7.04128
59.09,9.70644
59.15,8.87161
59.21,2.10345
59.27,17.6686
59.33,9.43378
59.39,6.90782
59.45,6.13297
59.51,10.1987
59.57,6.46097
59.63,0.0945109
59.69,4.5566
59.75,3.25204
59.81,5.6808
59.87,9.70942
59.93,10.9379
59.99,8.96637
60.05,16.9615
60.11,7.82332
60.17,6.28512
60.23,13.8136
60.29,2.24207
60.35,5.07054
60.41,5.59902
60.47,8.72749
60.53,6.68931
60.59,14.4511
60.65,3.87958
60.71,8.84489
60.77,6.88034
60.83,9.48247
60.89,9.95127
60.95,9.1534
61.01,5.26026
61.07,7.09072
61.13,12.5545
61.19,11.2517
61.25,4.84879
61.31,1.27926
61.37,2.29277
61.43,10.0119
61.49,3.56445
61.55,8.91697
61.61,4.96947
61.67,12.522
61.73,13.4745
61.79,13.327
61.85,8.67951
61.91,3.34831
61.97,5.74192
62.03,17.1022
62.09,11.3625
62.15,7.35609
62.21,10.4164
62.27,4.19727
62.33,7.98131
62.39,-1.80132
62.45,11.5076
62.51,2.6747
62.57,8.48617
62.63,-1.96903
62.69,10.1571
62.75,7.98325
62.81,9.10938
62.87,9.66885
62.93,12.395
62.99,6.42112
63.05,4.2149
63.11,13.3499
63.17,12.885
63.23,16.0867
63.29,5.88843
63.35,12.9568
63.41,9.25854
63.47,5.32693
63.53,18.762
63.59,14.7304
63.65,4.23208
63.71,10.2005
63.77,10.5355
63.83,0.737232
63.89,10.5276
63.95,9.30011
64.01,13.0727
64.07,17.3119
64.13,3.95109
64.19,13.7236
64.25,-1.10213
64.31,16.7813
64.37,-0.754736
64.43,-0.474065
64.49,3.70251
64.55,-0.609144
64.61,-0.512958
64.67,-0.161362
64.73,9.85002
64.79,-0.665952
64.85,-1.72924
64.91,-8.47074
64.97,-1.35417
65.03,5.60841
65.09,21.0777
65.15,48.0517
65.21,106.648
65.27,333.378
65.33,1022.34
65.39,1758.54
65.45,2545.27
65.51,2960.1
65.57,1346.96
65.63,1309.32
65.69,1296.22
65.75,355.448
65.81,75.6112
65.87,32.8075
65.93,11.3633
65.99,3.25073
66.05,3.16636
66.11,-1.45512
66.17,-5.68736
66.23,5.3496
66.29,8.03704
66.35,0.213029
66.41,6.42204
66.47,8.0315
66.53,7.79391
66.59,0.46611
66.65,-1.84653
66.71,7.87207
66.77,3.86966
66.83,10.1706
66.89,13.8715
66.95,9.53917
67.01,5.77593
67.07,7.38435
67.13,13.067
67.19,10.1701
67.25,2.72528
67.31,7.95129
67.37,12.944
67.43,3.37
67.49,0.89603
67.55,4.35659
67.61,-0.227696
67.67,8.82141
67.73,3.43717
67.79,5.9196
67.85,10.6354
67.91,-0.0155413
67.97,13.5326
68.03,3.48079
68.09,14.829
68.15,7.44379
68.21,3.65862
68.27,4.60678
68.33,5.48828
68.39,8.5224
68.45,10.6328
68.51,8.44327
68.57,0.455564
68.63,8.63779
68.69,13.2867
68.75,1.26893
68.81,0.107235
68.87,6.10135
68.93,11.7011
68.99,12.8342
69.05,17.0339
69.11,9.13368
69.17,8.16677
69.23,2.16652
69.29,11.0329
69.35,11.1027
69.41,15.7791
69.47,9.12213
69.53,13.0652
69.59,12.0416
69.65,6.71798
69.71,5.9786
69.77,12.6131
69.83,14.5809
69.89,10.582
69.95,10.2906
70.01,6.44742
70.07,6.97088
70.13,2.49434
70.19,4.27626
70.25,7.51914
70.31,9.39534
70.37,4.13822
70.43,7.81442
70.49,13.024
70.55,7.56685
70.61,3.67639
70.67,5.45259
70.73,4.3737
70.79,13.4839
70.85,4.62749
70.91,7.07105
70.97,7.24794
71.03,1.02484
71.09,4.32993
71.15,8.34478
71.21,10.9145
71.27,5.6842
71.33,16.5539
71.39,15.3903
71.45,7.22668
71.51,4.5964
71.57,10.8661
71.63,2.96917
71.69,2.13887
71.75,11.5086
71.81,6.84497
71.87,3.68136
71.93,7.18441
71.99,12.7208
72.05,-0.976164
72.11,-1.7541
72.17,4.38133
72.23,11.5168
72.29,8.01885
72.35,13.521
72.41,6.95638
72.47,8.49181
72.53,1.06057
72.59,5.09298
72.65,2.89204
72.71,12.8911
72.77,8.62351
72.83,4.8559
72.89,2.72164
72.95,0.432587
73.01,12.2956
73.07,10.7586
73.13,5.02158
73.19,13.1179
73.25,7.71425
73.31,4.94391
73.37,11.9402
73.43,11.6366
73.49,16.7996
73.55,0.495909
73.61,4.45536
73.67,17.5481
73.73,6.64758
73.79,10.3603
73.85,6.93973
73.91,6.75246
73.97,4.99854
74.03,9.01128
74.09,10.724
74.15,11.9677
74.21,10.04
74.27,11.3456
74.33,4.21784
74.39,3.93565
74.45,11.0671
74.51,1.71312
74.57,10.4946
74.63,15.2166
74.69,10.9386
74.75,4.06054
74.81,9.74917
74.87,0.437806
74.93,12.9527
74.99,8.86764
75.05,9.14922
75.11,3.93081
75.17,1.91239
75.23,5.84132
75.29,12.7556
75.35,6.6698
75.41,10.9174
75.47,3.66496
75.53,6.4792
75.59,8.09344
75.65,9.34102
75.71,12.5886
75.77,8.73617
75.83,5.28375
75.89,3.29799
75.95,4.61224
76.01,7.61029
76.07,7.68357
76.13,6.69018
76.19,7.11322
76.25,10.4283
76.31,11.5768
76.37,5.7252
76.43,10.1736
76.49,3.78873
76.55,2.03716
76.61,6.4856
76.67,-0.365964
76.73,9.65613
76.79,7.55735
76.85,6.3919
76.91,7.69312
76.97,2.69434
77.03,-0.078592
77.09,4.26328
77.15,12.0385
77.21,9.3137
77.27,5.18891
77.33,3.66411
77.39,5.23932
77.45,1.7791
77.51,2.80842
77.57,2.40439
77.63,0.499158
77.69,2.55114
77.75,2.04439
77.81,0.989761
77.87,9.65865
77.93,8.79421
77.99,3.52977
78.05,6.99866
78.11,-3.10084
78.17,-0.357991
78.23,4.10383
78.29,8.1534
78.35,10.7248
78.41,16.1241
78.47,30.8568
78.53,93.9894
78.59,282.222
78.65,445.888
78.71,610.687
78.77,522.62
78.83,247.486
78.89,276.019
78.95,313.151
79.01,223.817
79.07,49.6501
79.13,29.6161
79.19,7.99723
79.25,15.7003
79.31,4.7729
79.37,2.42125
79.43,-0.804672
79.49,3.72393
79.55,2.94573
79.61,4.41535
79.67,14.8088
79.73,8.3306
79.79,9.74148
79.85,3.5564
79.91,12.6547
79.97,3.46581
80.03,4.50946
80.09,0.0860599
80.15,2.16782
80.21,9.41625
80.27,5.99801
80.33,7.74644
80.39,5.76153
80.45,16.2433
80.51,3.2072
80.57,5.03538
80.63,12.7302
80.69,2.59174
80.75,2.58659
80.81,11.3481
80.87,-0.0264448
80.93,6.39808
80.99,4.13812
81.05,11.8908
81.11,8.37681
81.17,4.99616
81.23,7.28217
81.29,4.26818
81.35,14.8875
81.41,3.67355
81.47,10.6735
81.53,9.66373
81.59,12.3206
81.65,6.64422
81.71,4.66779
81.77,11.8247
81.83,-3.85165
81.89,2.7796
81.95,6.67881
82.01,9.74468
82.07,4.24389
82.13,2.52705
82.19,4.08015
82.25,-1.2581
82.31,3.98462
82.37,-1.56475
82.43,2.16793
82.49,3.83868
82.55,10.4436
82.61,8.36191
82.67,14.9166
82.73,32.8393
82.79,92.9286
82.85,301.251
82.91,488.374
82.97,620.53
83.03,414.919
83.09,219.942
83.15,255.798
83.21,301.854
83.27,245.81
83.33,59.4324
83.39,23.0217
83.45,8.61105
83.51,4.00036
83.57,7.62364
83.63,-2.58938
83.69,7.76799
83.75,0.215652
83.81,3.85969
83.87,-3.73036
83.93,7.83277
83.99,6.14228
84.05,1.58694
84.11,1.53158
84.17,1.80068
84.23,7.62533
84.29,4.50882
84.35,0.732653
84.41,5.22316
84.47,2.99268
84.53,14.9869
84.59,3.24772
84.65,9.57524
84.71,1.76943
84.77,7.19695
84.83,3.29113
84.89,0.118649
84.95,12.8617
85.01,3.38634
85.07,11.711
85.13,7.03571
85.19,12.7271
85.25,7.43246
85.31,4.81119
85.37,11.0899
85.43,6.00198
85.49,6.71404
85.55,11.9261
85.61,13.5715
85.67,11.9502
85.73,2.9833
85.79,4.99262
85.85,6.00192
85.91,12.0779
85.97,9.12053
86.03,6.62983
86.09,3.87247
86.15,9.78177
86.21,19.1577
86.27,6.19642
86.33,2.96448
86.39,4.05603
86.45,12.5123
86.51,8.4352
86.57,7.55812
86.63,12.3801
86.69,9.33454
86.75,6.7223
86.81,9.21005
86.87,15.2645
86.93,6.15222
86.99,9.55303
87.05,4.31034
87.11,8.60099
87.17,5.45831
87.23,6.31563
87.29,8.17294
87.35,12.0344
87.41,9.96458
87.47,7.1281
87.53,1.45828
87.59,7.35578
87.65,16.0263
87.71,13.3968
87.77,8.86737
87.83,9.37124
87.89,2.2751
87.95,13.279
88.01,11.7828
88.07,9.08669
88.13,-3.33209
88.19,8.73449
88.25,6.66776
88.31,3.23434
88.37,9.36761
88.43,11.1675
88.49,16.1675
88.55,8.07342
88.61,12.1854
88.67,10.4641
88.73,7.37608
88.79,8.58808
88.85,7.53341
88.91,8.14541
88.97,7.39074
89.03,9.23607
89.09,7.51474
89.15,7.99341
89.21,5.20541
89.27,3.81741
89.33,5.82707
89.39,12.6163
89.45,7.43881
89.51,7.52802
89.57,14.7172
89.63,8.4731
89.69,4.54159
89.75,13.7407
89.81,8.60646
89.87,-1.47621
89.93,7.87668
89.99,5.22958