File: Data_XRD/baseline_LiF-Pure.csv
20.01,0.155548
20.05,0.10688
20.09,0.139982
20.13,0.271664
20.17,0.268555
20.21,0.372237
20.25,0.234319
20.29,0.172581
20.33,0.105993
20.37,0.173084
20.41,0.0478662
20.45,0.126633
20.49,0.238261
20.53,0.60493
20.57,0.416338
20.61,0.343507
20.65,0.305405
20.69,0.275514
20.73,0.239642
20.77,0.1164
20.81,0.198909
20.85,0.298957
20.89,0.112986
20.93,0.00076992
20.97,0.0926714
21.01,0.130063
21.05,0.268644
21.09,0.149206
21.13,0.267617
21.17,0.184769
21.21,0.15569
21.25,0.203532
21.29,0.364523
21.33,0.133435
21.37,0.273876
21.41,0.295588
21.45,0.112289
21.49,0.175441
21.53,0.0604821
21.57,0.172554
21.61,0.182685
21.65,0.111407
21.69,0.121825
21.73,0.205499
21.77,-0.00465405
21.81,0.102537
21.85,0.257139
21.89,0.28852
21.93,0.253442
21.97,0.117163
22.01,0.146304
22.05,0.145956
22.09,0.0470926
22.13,0.154206
22.17,0.248999
22.21,0.195172
22.25,0.250755
22.29,0.212988
22.33,0.0669314
22.37,0.115044
22.41,0.179598
22.45,0.187751
22.49,0.201894
22.53,0.206687
22.57,0.0506228
22.61,0.225237
22.65,0.154901
22.69,0.131615
22.73,0.0754692
22.77,0.155993
22.81,0.336207
22.85,0.179991
22.89,0.0487806
22.93,0.192395
22.97,0.138109
23.01,0.0782132
23.05,0.231537
23.09,0.0323716
23.13,0.141816
23.17,0.201233
23.21,0.411509
23.25,0.189386
23.29,0.216323
23.33,0.248479
23.37,0.0969258
23.41,0.214972
23.45,0.167969
23.49,0.191176
23.53,0.224082
23.57,0.140661
23.61,0.0368831
23.65,0.164644
23.69,0.0244851
23.73,0.207696
23.77,0.265817
23.81,0.063298
23.85,0.158749
23.89,0.02196
23.93,0.19223
23.97,0.15264
24.01,0.0592894
24.05,0.114929
24.09,0.157119
24.13,0.0943889
24.17,0.192589
24.21,0.164588
24.25,0.107828
24.29,0.00513808
24.33,0.155084
24.37,0.19076
24.41,0.0886562
24.45,0.150411
24.49,0.0426154
24.53,0.16111
24.57,0.198204
24.61,0.0549385
24.65,0.229813
24.69,0.229937
24.73,0.107582
24.77,0.194336
24.81,0.0197104
24.85,0.190731
24.89,0.28079
24.93,0.22634
24.97,0.17786
25.01,0.158139
25.05,0.206009
25.09,0.204208
25.13,0.103828
25.17,0.191277
25.21,0.123387
25.25,0.352346
25.29,0.0850657
25.33,0.155325
25.37,0.317825
25.41,0.153604
25.45,0.161134
25.49,0.147763
25.53,0.157163
25.57,0.0758323
25.61,0.101292
25.65,0.230181
25.69,0.170511
25.73,0.34346
25.77,0.1165
25.81,0.239789
25.85,0.205509
25.89,0.154048
25.93,0.178758
25.97,0.243798
26.01,0.127367
26.05,-0.0570209
26.09,0.34105
26.13,0.0740902
26.17,0.338861
26.21,0.193251
26.25,0.285512
26.29,0.235872
26.33,0.158603
26.37,0.0701235
26.41,0.266639
26.45,0.245933
26.49,0.0101571
26.53,0.209418
26.57,0.0166189
26.61,0.127685
26.65,0.151371
26.69,0.0813272
26.73,0.185293
26.77,0.340799
26.81,0.305856
26.85,0.181682
26.89,0.101188
26.93,0.191334
26.97,0.16536
27.01,0.150586
27.05,0.247092
27.09,0.101998
27.13,0.0958145
27.17,0.225921
27.21,0.0520767
27.25,0.233333
27.29,0.246939
27.33,0.179895
27.37,0.111721
27.41,0.280955
27.45,0.0431179
27.49,0.100462
27.53,0.0990492
27.57,0.0632767
27.61,0.222054
27.65,0.318472
27.69,0.150978
27.73,0.0934899
27.77,0.0311622
27.81,0.210034
27.85,0.194007
27.89,0.125319
27.93,0.0437816
27.97,0.0115388
28.01,0.179321
28.05,0.0334328
28.09,0.0712748
28.13,0.0572068
28.17,0.125289
28.21,0.260581
28.25,0.285343
28.29,0.249615
28.33,0.107477
28.37,0.0474786
28.41,0.102491
28.45,0.0675126
28.49,0.237535
28.53,0.208157
28.57,0.0506986
28.61,0.287181
28.65,0.305603
28.69,0.113425
28.73,0.267587
28.77,0.168789
28.81,0.158482
28.85,0.0428743
28.89,0.154568
28.93,0.0150581
28.97,0.150094
29.01,0.0839054
29.05,0.108077
29.09,0.149058
29.13,0.131409
29.17,0.19256
29.21,0.115541
29.25,0.111436
29.29,0.123873
29.33,0.23003
29.37,0.224538
29.41,0.280285
29.45,0.246793
29.49,0.0508599
29.53,0.0912973
29.57,0.0152346
29.61,0.030662
29.65,0.0746543
29.69,0.0645094
29.73,0.0939345
29.77,0.15324
29.81,0.142715
29.85,0.10232
29.89,0.127645
29.93,0.18172
29.97,0.0804008
30.01,0.251879
30.05,0.182887
30.09,0.146015
30.13,0.135273
30.17,0.0540647
30.21,0.181311
30.25,0.179366
30.29,0.126272
30.33,0.243808
30.37,0.122004
30.41,0.15703
30.45,0.161056
30.49,0.0750914
30.53,0.144097
30.57,0.0577631
30.61,0.193979
30.65,0.0815047
30.69,0.0880844
30.73,0.00273799
30.77,0.0980666
30.81,0.221681
30.85,0.186235
30.89,0.344579
30.93,0.148194
30.97,0.169878
31.01,0.043692
31.05,0.0302762
31.09,0.259837
31.13,0.0293378
31.17,0.228638
31.21,0.181108
31.25,0.198559
31.29,0.114819
31.33,0.118449
31.37,0.0754097
31.41,0.25455
31.45,0.20628
31.49,0.199461
31.53,0.169861
31.57,0.211951
31.61,0.226792
31.65,0.218852
31.69,0.195222
31.73,0.175332
31.77,0.0953228
31.81,0.0787931
31.85,0.186983
31.89,0.210404
31.93,-0.010746
31.97,0.119042
32.01,0.258084
32.05,0.0915415
32.09,0.216249
32.13,0.223336
32.17,0.0694933
32.21,0.0978605
32.25,0.134828
32.29,0.132575
32.33,0.255792
32.37,0.1546
32.41,0.141897
32.45,0.00970408
32.49,0.199133
32.53,0.113273
32.57,0.0643824
32.61,-0.0080278
32.65,0.0875983
32.69,0.0760505
32.73,0.0816727
32.77,0.044355
32.81,0.0548272
32.85,0.0443994
32.89,0.142252
32.93,0.0911139
32.97,0.153866
33.01,0.113558
33.05,0.0952906
33.09,0.0654429
33.13,0.182335
33.17,-0.0147966
33.21,0.208695
33.25,0.292167
33.29,0.0604789
33.33,0.0397707
33.37,0.179623
33.41,0.221264
33.45,0.271126
33.49,0.139138
33.53,0.0295599
33.57,0.152612
33.61,0.229354
33.65,0.0361254
33.69,0.0113641
33.73,0.163406
33.77,0.0424886
33.81,0.0231409
33.85,0.241283
33.89,0.104685
33.93,0.190638
33.97,0.0525399
34.01,0.126922
34.05,0.133334
34.09,0.01483
34.13,0.278659
34.17,0.0846983
34.21,0.0389774
34.25,0.0978165
34.29,0.0991456
34.33,0.063097
34.37,0.134105
34.41,0.0744134
34.45,0.0251815
34.49,0.0740473
34.53,0.259573
34.57,0.268109
34.61,0.225854
34.65,0.20601
34.69,0.286616
34.73,0.298132
34.77,0.255507
34.81,0.433193
34.85,0.418209
34.89,0.255345
34.93,0.20078
34.97,0.127536
35.01,0.177892
35.05,0.149458
35.09,0.0645376
35.13,0.154451
35.17,0.102844
35.21,0.222257
35.25,0.14489
35.29,0.0850635
35.33,0.161537
35.37,0.19842
35.41,0.117323
35.45,-0.00448382
35.49,0.107279
35.53,0.145102
35.57,0.163145
35.61,0.374228
35.65,0.0435111
35.69,0.182914
35.73,0.137467
35.77,0.0957701
35.81,0.00402925
35.85,0.0741568
35.89,0.0389844
35.93,0.170722
35.97,0.12808
36.01,0.230697
36.05,0.132045
36.09,0.203292
36.13,0.1192
36.17,0.0877676
36.21,0.0701452
36.25,0.0902328
36.29,0.147318
36.33,0.0806688
36.37,0.217519
36.41,0.0847699
36.45,0.0540308
36.49,0.170984
36.53,0.141948
36.57,0.121121
36.61,0.0827448
36.65,0.0291358
36.69,0.0560018
36.73,0.00519323
36.77,0.0137998
36.81,0.0900225
36.85,0.0194952
36.89,0.0807302
36.93,0.0866457
36.97,0.129161
37.01,0.0738468
37.05,0.109632
37.09,-0.0445078
37.13,-0.0535134
37.17,0.143569
37.21,0.0882216
37.25,0.0776841
37.29,0.212027
37.33,0.412089
37.37,0.271242
37.41,0.308874
37.45,0.355087
37.49,0.238139
37.53,0.225732
37.57,0.0546341
37.61,0.11332
37.65,0.173543
37.69,0.213236
37.73,0.108419
37.77,0.079402
37.81,0.152913
37.85,-0.0198283
37.89,-0.0886163
37.93,0.0353724
37.97,0.165409
38.01,0.0152139
38.05,0.00340476
38.09,-0.0312549
38.13,-0.109067
38.17,-0.0478712
38.21,-0.0600785
38.25,0.15728
38.29,0.466624
38.33,1.03591
38.37,2.01257
38.41,4.3667
38.45,10.2454
38.49,19.6221
38.53,30.3274
38.57,42.6939
38.61,59.8392
38.65,78.1406
38.69,86.3687
38.73,60.4713
38.77,38.8448
38.81,30.8729
38.85,9.05451
38.89,2.23379
38.93,1.16534
38.97,0.537107
39.01,0.234869
39.05,0.0905363
39.09,0.079497
39.13,0.0534962
39.17,0.0980363
39.21,-0.0107428
39.25,0.0154062
39.29,0.0472987
39.33,-0.152521
39.37,-0.00684217
39.41,0.129242
39.45,0.114407
39.49,0.106424
39.53,-0.040691
39.57,0.0891715
39.61,0.117006
39.65,-0.159825
39.69,0.201876
39.73,0.195689
39.77,0.0221213
39.81,0.167699
39.85,0.0808246
39.89,0.13372
39.93,0.157116
39.97,0.0916412
40.01,0.0157068
40.05,0.13264
40.09,0.119948
40.13,0.0475066
40.17,0.0859751
40.21,0.178954
40.25,0.275292
40.29,0.179701
40.33,0.204339
40.37,0.376858
40.41,0.386936
40.45,0.243185
40.49,0.147963
40.53,0.0027118
40.57,0.237371
40.61,0.1212
40.65,0.142819
40.69,0.173028
40.73,0.227136
40.77,0.0445053
40.81,0.0967779
40.85,0.154305
40.89,0.0396921
40.93,0.103189
40.97,0.0987264
41.01,0.140193
41.05,0.148061
41.09,0.0733977
41.13,0.191415
41.17,0.285152
41.21,0.107439
41.25,0.133216
41.29,0.0858133
41.33,0.0653004
41.37,0.0414176
41.41,0.106785
41.45,0.137802
41.49,-0.0585413
41.53,0.0899159
41.57,0.159869
41.61,0.117802
41.65,0.0197249
41.69,0.138228
41.73,0.0905609
41.77,0.0832239
41.81,0.00770225
41.85,0.218955
41.89,0.163227
41.93,0.0675497
41.97,0.130192
42.01,0.183875
42.05,0.108367
42.09,0.16205
42.13,0.142172
42.17,0.0793445
42.21,0.176347
42.25,0.0873894
42.29,0.0365219
42.33,0.0928086
42.37,0.234233
42.41,0.140788
42.45,0.132103
42.49,0.0983981
42.53,0.137143
42.57,0.00411781
42.61,-0.00548688
42.65,0.176653
42.69,0.0660331
42.73,0.106283
42.77,0.0774431
42.81,0.158753
42.85,0.0951932
42.89,0.210863
42.93,0.169323
42.97,0.0736532
43.01,0.00037319
43.05,0.0533281
43.09,0.123278
43.13,0.0236189
43.17,-0.00254967
43.21,0.0236798
43.25,0.111154
43.29,0.216539
43.33,0.00939389
43.37,0.201039
43.41,0.298213
43.45,0.223628
43.49,0.213263
43.53,0.200657
43.57,0.248542
43.61,0.207557
43.65,0.0403616
43.69,0.0523963
43.73,0.190281
43.77,0.178796
43.81,0.0684923
43.85,0.131854
43.89,0.0962665
43.93,-0.0431314
43.97,0.0505245
44.01,0.090121
44.05,0.00649739
44.09,0.0691727
44.13,-0.0352258
44.17,-0.0815693
44.21,0.000826506
44.25,0.0136109
44.29,-0.048283
44.33,-0.0187102
44.37,-0.0237033
44.41,-0.00807257
44.45,-0.0108611
44.49,0.113961
44.53,0.182066
44.57,0.546822
44.61,0.991898
44.65,1.83763
44.69,3.90476
44.73,9.22124
44.77,19.6115
44.81,31.8691
44.85,45.3583
44.89,63.8491
44.93,84.2394
44.97,97.0419
45.01,80.0801
45.05,47.0411
45.09,41.4591
45.13,26.011
45.17,6.45521
45.21,2.4176
45.25,1.19544
45.29,0.670782
45.33,0.225262
45.37,-0.0150934
45.41,0.12102
45.45,0.104521
45.49,0.0130617
45.53,0.0684308
45.57,-0.00579573
45.61,-0.0802423
45.65,0.0509756
45.69,-0.0783182
45.73,-0.10721
45.77,0.0462614
45.81,0.0882147
45.85,0.026368
45.89,-0.0457257
45.93,0.0574813
45.97,0.0434883
46.01,0.0490316
46.05,0.0807049
46.09,-0.00262174
46.13,0.0295509
46.17,-0.00282952
46.21,0.0580886
46.25,0.0555367
46.29,0.0376647
46.33,0.104933
46.37,0.0641684
46.41,-0.00657638
46.45,0.0654719
46.49,0.0400601
46.53,0.0770184
46.57,0.0221066
46.61,0.129676
46.65,0.0565294
46.69,0.0696327
46.73,0.0239605
46.77,-0.00130249
46.81,0.104822
46.85,0.0283473
46.89,0.0545523
46.93,0.00270016
46.97,0.0691269
47.01,0.0989637
47.05,0.11424
47.09,0.0354173
47.13,0.118388
47.17,0.00895131
47.21,0.100025
47.25,0.109329
47.29,0.0995922
47.33,0.144746
47.37,0.0431494
47.41,0.040873
47.45,-0.0241901
47.49,0.0894422
47.53,0.096442
47.57,0.164312
47.61,0.0656516
47.65,0.131281
47.69,0.0486712
47.73,0.159111
47.77,0.106001
47.81,0.0611106
47.85,0.18872
47.89,0.11545
47.93,0.14859
47.97,0.13656
48.01,0.0509596
48.05,0.0522013
48.09,0.065615
48.13,0.0196487
48.17,0.133492
48.21,0.069606
48.25,0.0762897
48.29,0.0640963
48.33,0.0374957
48.37,0.156905
48.41,0.0955844
48.45,-0.00121619
48.49,0.0901344
48.53,0.191945
48.57,0.124226
48.61,0.187936
48.65,0.134787
48.69,0.0286073
48.73,0.136758
48.77,0.165379
48.81,0.155159
48.85,0.1076
48.89,0.13062
48.93,0.0543109
48.97,0.0366314
49.01,0.076082
49.05,0.295883
49.09,0.0791732
49.13,0.276944
49.17,0.156204
49.21,0.222535
49.25,0.169006
49.29,-0.0327639
49.33,0.157336
49.37,0.0546858
49.41,0.0730862
49.45,0.146969
49.49,0.0397514
49.53,0.039704
49.57,0.169597
49.61,0.140039
49.65,0.148582
49.69,0.0268043
49.73,0.0316069
49.77,0.0561995
49.81,0.133062
49.85,0.0986646
49.89,0.147897
49.93,0.16167
49.97,0.107842
50.01,0.216085
50.05,0.129398
50.09,0.17939
50.13,-0.00363729
50.17,0.154489
50.21,0.0967959
50.25,0.128332
50.29,0.182279
50.33,0.104416
50.37,0.0792021
50.41,0.0904991
50.45,0.150996
50.49,0.149514
50.53,0.100231
50.57,0.269398
50.61,0.0554453
50.65,0.0647926
50.69,0.0543696
50.73,0.0488558
50.77,0.0747121
50.81,0.0460484
50.85,0.0834746
50.89,0.00142086
50.93,0.0517519
50.97,0.0913549
51.01,0.128338
51.05,0.177651
51.09,0.117934
51.13,0.263577
51.17,0.17249
51.21,0.077293
51.25,0.141546
51.29,0.208029
51.33,0.117692
51.37,0.046025
51.41,0.0459827
51.45,0.0708851
51.49,0.146958
51.53,0.18904
51.57,0.0884925
51.61,0.115635
51.65,0.142787
51.69,0.0814399
51.73,0.0940324
51.77,0.162255
51.81,0.177457
51.85,0.12619
51.89,0.162302
51.93,0.0471846
51.97,0.236571
52.01,0.0654791
52.05,0.125298
52.09,0.0671278
52.13,0.123957
52.17,0.0993966
52.21,0.0811659
52.25,0.179455
52.29,0.120905
52.33,0.151224
52.37,0.0796033
52.41,0.137183
52.45,0.082372
52.49,0.0712414
52.53,0.155341
52.57,0.17856
52.61,0.155859
52.65,0.192909
52.69,0.0731181
52.73,0.215457
52.77,0.0788668
52.81,0.0983905
52.85,0.0938989
52.89,0.120397
52.93,0.109186
52.97,0.0983441
53.01,0.0270125
53.05,0.142011
53.09,0.000884634
53.13,0.114383
53.17,0.144221
53.21,0.16436
53.25,0.093768
53.29,0.111286
53.33,0.111635
53.37,0.163893
53.41,0.184401
53.45,0.0484598
53.49,0.131698
53.53,0.0812665
53.57,0.151445
53.61,0.125283
53.65,0.0319016
53.69,0.16854
53.73,0.238718
53.77,0.209567
53.81,0.155025
53.85,0.0653833
53.89,0.154982
53.93,0.09035
53.97,0.137378
54.01,0.0805967
54.05,0.102975
54.09,0.116763
54.13,0.104422
54.17,0.0737702
54.21,0.0757416
54.25,0.112057
54.29,0.197652
54.33,0.0032072
54.37,0.202451
54.41,0.0282949
54.45,0.146509
54.49,0.175853
54.53,0.109976
54.57,0.0452302
54.61,0.147384
54.65,0.117738
54.69,0.122062
54.73,0.0767256
54.77,0.047784
54.81,0.0841468
54.85,0.1067
54.89,0.0556528
54.93,0.0788264
54.97,0.10312
55.01,0.112104
55.05,0.034928
55.09,0.0999149
55.13,0.103662
55.17,0.156329
55.21,0.0824055
55.25,0.00736235
55.29,0.0916843
55.33,0.0755663
55.37,0.0758782
55.41,0.12249
55.45,0.145202
55.49,0.00958408
55.53,0.0547204
55.57,0.0430868
55.61,0.0956831
55.65,0.0478295
55.69,0.0959458
55.73,0.0757322
55.77,0.170899
55.81,0.0860749
55.85,0.0658612
55.89,0.122938
55.93,0.0765839
55.97,0.13254
56.01,0.0641566
56.05,0.104423
56.09,0.0823393
56.13,0.160706
56.17,0.227112
56.21,0.137068
56.25,0.0776447
56.29,0.141441
56.33,0.0715674
56.37,0.0696438
56.41,0.0766801
56.45,0.172216
56.49,0.0765728
56.53,0.115359
56.57,0.109695
56.61,0.164162
56.65,0.0823382
56.69,0.0348545
56.73,0.143461
56.77,0.0761972
56.81,0.0600836
56.85,0.00776039
56.89,0.164983
56.93,0.156787
56.97,0.0817597
57.01,0.0545228
57.05,0.179636
57.09,0.029549
57.13,0.0401749
57.17,0.110152
57.21,0.0890284
57.25,0.157515
57.29,0.0434019
57.33,0.0685787
57.37,0.122125
57.41,0.0546922
57.45,0.148199
57.49,0.121466
57.53,0.134588
57.57,0.0904644
57.61,0.0993712
57.65,0.142998
57.69,0.0828249
57.73,0.107412
57.77,0.0886885
57.81,0.168165
57.85,0.0247222
57.89,0.165439
57.93,0.106756
57.97,0.200423
58.01,0.1298
58.05,0.182016
58.09,0.105043
58.13,0.13971
58.17,0.0130669
58.21,0.0838337
58.25,0.256277
58.29,0.0859299
58.33,0.0287552
58.37,0.212553
58.41,0.152151
58.45,0.141399
58.49,0.236707
58.53,0.261805
58.57,0.136432
58.61,0.12083
58.65,0.040834
58.69,0.131705
58.73,0.164696
58.77,0.0845468
58.81,0.163848
58.85,0.189749
58.89,0.19585
58.93,0.0488706
58.97,0.126302
59.01,-0.000527511
59.05,0.0481323
59.09,0.108732
59.13,0.0730019
59.17,0.134352
59.21,0.0235615
59.25,0.0823014
59.29,0.112291
59.33,0.105681
59.37,0.00497078
59.41,0.0881795
59.45,0.0687083
59.49,0.0545235
59.53,0.0403007
59.57,0.0723779
59.61,0.00961508
59.65,0.0347774
59.69,0.0510422
59.73,0.044167
59.77,0.0712618
59.81,0.0636366
59.85,0.0119508
59.89,0.121194
59.93,0.122526
59.97,0.074199
60.01,0.104652
60.05,0.190004
60.09,0.100977
60.13,0.12471
60.17,0.0704125
60.21,0.128875
60.25,0.157088
60.29,0.0251206
60.33,0.0817133
60.37,0.087896
60.41,0.0627187
60.45,0.129031
60.49,0.0706141
60.53,0.0749368
60.57,0.10091
60.61,0.220242
60.65,0.0434649
60.69,0.0247651
60.73,0.108798
60.77,0.0770805
60.81,0.123023
60.85,0.103246
60.89,0.111479
60.93,0.107761
60.97,0.0969441
61.01,0.0589297
61.05,0.118524
61.09,0.0552784
61.13,0.140643
61.17,0.102037
61.21,0.0555815
61.25,0.0543159
61.29,0.13072
61.33,-0.00286775
61.37,0.0256856
61.41,0.0976468
61.45,0.154298
61.49,0.0399292
61.53,0.0626004
61.57,0.0763115
61.61,0.0556727
61.65,0.0749839
61.69,0.177935
61.73,0.150946
61.77,0.0881074
61.81,0.155219
61.85,0.0972298
61.89,0.0350455
61.93,0.0713459
61.97,0.0643262
62.01,0.193597
62.05,0.143637
62.09,0.127287
62.13,0.0821876
62.17,0.0964479
62.21,0.116688
62.25,0.00959862
62.29,0.171302
62.33,0.0894127
62.37,0.110954
62.41,0.122749
62.45,0.128909
62.49,0.0198415
62.53,0.0479338
62.57,0.0950662
62.61,0.129879
62.65,0.0876976
62.69,0.113783
62.73,0.103279
62.77,0.0584147
62.81,0.10205
62.85,0.155396
62.89,0.175502
62.93,0.138858
62.97,0.0902533
63.01,0.026729
63.05,0.0472159
63.09,0.138349
63.13,0.289961
63.17,0.144344
63.21,0.104777
63.25,0.1018
63.29,0.0659725
63.33,0.114525
63.37,0.142168
63.41,0.103721
63.45,0.167214
63.49,0.183656
63.53,0.210179
63.57,0.161652
63.61,0.146735
63.65,0.0474173
63.69,0.15086
63.73,0.0732129
63.77,0.118026
63.81,0.158748
63.85,0.0564074
63.89,0.117944
63.93,0.12384
63.97,0.159977
64.01,0.146454
64.05,0.12435
64.09,0.179907
64.13,0.0442833
64.17,0.15659
64.21,0.0747364
64.25,-0.01233
64.29,0.0881201
64.33,0.14674
64.37,-0.00843818
64.41,0.000430056
64.45,-0.00862635
64.49,0.0414881
64.53,-0.00401905
64.57,0.0465163
64.61,-0.00573187
64.65,-0.0181775
64.69,0.0141379
64.73,0.110368
64.77,0.0281077
64.81,-0.0982117
64.85,-0.0193419
64.89,-0.0135047
64.93,-0.0237717
64.97,-0.0151775
65.01,0.0560007
65.05,0.100149
65.09,0.236078
65.13,0.416774
65.17,0.6739
65.21,1.19464
65.25,2.2486
65.29,5.92198
65.33,11.4523
65.37,17.052
65.41,22.5166
65.45,28.5122
65.49,34.4413
65.53,27.9656
65.57,15.0887
65.61,13.9747
65.65,15.2699
65.69,14.5203
65.73,7.25859
65.77,2.29257
65.81,0.846985
65.85,0.398752
65.89,0.319439
65.93,0.127272
65.97,0.144939
66.01,-0.025609
66.05,0.0354898
66.09,-0.0943802
66.13,0.0687704
66.17,-0.0636796
66.21,0.0269141
66.25,-0.00818682
66.29,0.0900635
66.33,-0.0763292
66.37,0.00608748
66.41,0.0719586
66.45,0.105387
66.49,0.00550606
66.53,0.0873251
66.57,0.0403141
66.61,0.0175831
66.65,-0.0206716
66.69,0.116253
66.73,0.0194368
66.77,0.0433656
66.81,0.128379
66.85,0.0554517
66.89,0.155405
66.93,0.0645479
66.97,0.0954209
67.01,0.0647086
67.05,0.0713709
67.09,-0.0257769
67.13,0.14639
67.17,0.0608963
67.21,0.0676429
67.25,0.0305363
67.29,0.0892263
67.33,0.101246
67.37,0.145006
67.41,0.0618065
67.45,0.0626266
67.49,0.0100366
67.53,0.0267301
67.57,0.0298106
67.61,-0.0025516
67.65,0.0981407
67.69,0.064033
67.73,0.0385053
67.77,0.0611576
67.81,0.0572898
67.85,0.119142
67.89,0.0760644
67.93,0.0598732
67.97,0.151599
68.01,0.0323438
68.05,0.0680491
68.09,0.166114
68.13,0.0845798
68.17,0.0672651
68.21,0.0409904
68.25,0.0651157
68.29,0.051161
68.33,0.0614863
68.37,0.0610797
68.41,0.105221
68.45,0.119113
68.49,0.0908144
68.53,0.154366
68.57,0.00510831
68.61,0.0577473
68.65,0.125326
68.69,0.148845
68.73,0.136884
68.77,0.0636932
68.81,0.0012034
68.85,-0.0167878
68.89,0.131457
68.93,0.131082
68.97,0.111657
69.01,0.138542
69.05,0.190817
69.09,0.0709518
69.13,0.0582567
69.17,0.0914917
69.21,0.0612366
69.25,0.0209115
69.29,0.123596
69.33,0.00186141
69.37,0.0945409
69.41,0.17676
69.45,0.0524898
69.49,0.169069
69.53,0.146359
69.57,0.188998
69.61,0.0300077
69.65,0.0752572
69.69,0.0100875
69.73,0.117515
69.77,0.141292
69.81,0.0952497
69.85,0.174667
69.89,0.118545
69.93,0.00416194
69.97,0.0882359
70.01,0.0722298
70.05,0.100654
70.09,0.0656077
70.13,0.0279417
70.17,0.0135169
70.21,0.0587682
70.25,0.0842294
70.29,0.0865407
70.33,0.0948319
70.37,0.0463532
70.41,0.0576345
70.45,0.0730157
70.49,0.145897
70.53,0.0753982
70.57,0.0903995
70.61,0.0411807
70.65,0.065902
70.69,0.0125732
70.73,0.0489975
70.77,0.127982
70.81,0.156186
70.85,0.0518402
70.89,0.0703344
70.93,0.102649
70.97,0.0811929
71.01,0.0425572
71.05,0.0695013
71.09,0.0485053
71.13,0.0594905
71.17,0.0964771
71.21,0.122264
71.25,0.12602
71.29,0.101407
71.33,0.185443
71.37,0.0745598
71.41,0.156736
71.45,0.0809529
71.49,0.0690294
71.53,0.154566
71.57,0.121723
71.61,0.0922491
71.65,0.0609056
71.69,0.0239622
71.73,0.0971687
71.77,0.159185
71.81,0.0766818
71.85,0.177148
71.89,0.101745
71.93,0.0804814
71.97,0.146978
72.01,0.121235
72.05,-0.0109289
72.09,0.0332363
72.13,0.1306
72.17,0.0490879
72.21,0.203935
72.25,0.116823
72.29,0.0898305
72.33,0.128558
72.37,0.0403255
72.41,0.077933
72.45,0.130471
72.49,0.119528
72.53,0.0118856
72.57,0.0779686
72.61,0.0790815
72.65,0.0324045
72.69,0.0308975
72.73,0.12686
72.77,0.0966034
72.81,0.0962264
72.85,0.0375893
72.89,0.0304923
72.93,0.0274953
72.97,0.116105
73.01,0.137734
73.05,0.148543
73.09,0.0839127
73.13,0.0562521
73.17,0.137632
73.21,0.0991409
73.25,0.0864203
73.29,0.0669697
73.33,0.0538791
73.37,0.133758
73.41,0.112068
73.45,0.125487
73.49,0.188197
73.53,0.039176
73.57,0.0863067
73.61,0.0499085
73.65,0.18602
73.69,0.0969723
73.73,0.0744687
73.77,0.0673497
73.81,0.0254907
73.85,0.0777417
73.89,0.0732328
73.93,0.0496738
73.97,0.0559948
74.01,0.0761358
74.05,0.132857
74.09,0.120138
74.13,-0.0199212
74.17,0.140189
74.21,0.11247
74.25,0.0843805
74.29,0.188481
74.33,0.0472516
74.37,0.00684222
74.41,0.00441651
74.45,0.123976
74.49,0.072662
74.53,0.0132174
74.57,0.117562
74.61,0.111376
74.65,0.0764398
74.69,0.122534
74.73,0.056608
74.77,0.0806721
74.81,0.109216
74.85,0.0806304
74.89,0.130173
74.93,0.145103
74.97,0.0465134
75.01,0.151044
75.05,0.102494
75.09,0.0438545
75.13,0.102465
75.17,0.0214253
75.21,0.0626481
75.25,0.106686
75.29,0.142895
75.33,0.0760331
75.37,0.107751
75.41,0.1223
75.45,0.0442382
75.49,0.116667
75.53,0.0725849
75.57,0.0863832
75.61,0.0930816
75.65,0.10464
75.69,0.0982783
75.73,0.172187
75.77,0.097865
75.81,0.0242833
75.85,0.0627317
75.89,0.03694
75.93,0.125418
75.97,0.00479674
76.01,0.0852471
76.05,0.0775875
76.09,0.0855979
76.13,0.0749484
76.17,0.00333204
76.21,0.159397
76.25,0.116822
76.29,0.0873074
76.33,0.111193
76.37,0.0641376
76.41,0.0951128
76.45,0.116388
76.49,0.042443
76.53,0.0155481
76.57,0.0398032
76.61,0.0726584
76.65,0.0670435
76.69,0.0547626
76.73,0.108168
76.77,0.0678534
76.81,0.143659
76.85,0.0716041
76.89,0.0757195
76.93,0.0858149
76.97,0.0301802
77.01,0.00181561
77.05,0.0302657
77.09,0.0477581
77.13,0.0618904
77.17,0.0775128
77.21,0.104335
77.25,0.0523675
77.29,0.0773299
77.33,0.0410423
77.37,0.0480846
77.41,0.052127
77.45,0.0199359
77.49,0.0134246
77.53,0.0248533
77.57,0.026932
77.61,0.0488107
77.65,0.0838307
77.69,0.028579
77.73,0.0550812
77.77,0.00939494
77.81,0.0110881
77.85,0.109443
77.89,0.0778377
77.93,0.0985225
77.97,0.0717773
78.01,0.0446621
78.05,0.0784069
78.09,-0.0140583
78.13,-0.0232025
78.17,-0.00400904
78.21,0.0715607
78.25,0.0787881
78.29,0.0913243
78.33,0.0684547
78.37,0.186825
78.41,0.180592
78.45,0.24045
78.49,0.442577
78.53,1.05283
78.57,2.18584
78.61,3.84536
78.65,4.99481
78.69,6.43215
78.73,7.02783
78.77,5.85434
78.81,3.27239
78.85,2.66498
78.89,3.09188
78.93,3.50535
78.97,3.44946
79.01,2.50711
79.05,0.968063
79.09,0.31435
79.13,0.331638
79.17,0.102486
79.21,0.0951758
79.25,0.17572
79.29,0.0214761
79.33,-0.0530916
79.37,0.0268362
79.41,0.0747076
79.45,0.0270315
79.49,0.0410731
79.53,0.00590354
79.57,0.0451218
79.61,0.0481301
79.65,0.016632
79.69,0.0719986
79.73,0.0907653
79.77,0.0106979
79.81,0.124932
79.85,0.0353031
79.89,0.031445
79.93,0.0189873
79.97,0.0307996
80.0,0.0123077