File: Data_XRD/baseline_ZnO.csv
20.0192,37.9188
20.08,32.056
20.1407,48.1818
20.2015,16.302
20.2622,19.4222
20.323,37.5424
20.3837,3.66254
20.4444,14.7033
20.5052,2.58528
20.5659,8.46725
20.6267,24.3492
20.6874,32.2312
20.7482,27.1132
20.8089,66.9951
20.8697,14.8771
20.9304,2.75907
20.9912,2.6421
21.0519,20.5257
21.1126,15.4092
21.1734,34.162
21.2341,8.83557
21.2949,4.48126
21.3556,27.127
21.4164,34.7726
21.4771,31.4183
21.5379,4.06402
21.5986,36.7097
21.6594,35.3554
21.7201,30.0011
21.7808,13.6468
21.8416,14.2925
21.9023,37.9382
21.9631,20.5838
22.0238,27.2295
22.0846,23.8752
22.1453,39.3768
22.2061,11.8064
22.2668,34.2359
22.3276,12.6655
22.3883,29.095
22.449,11.5246
22.5098,23.9541
22.5705,4.38365
22.6313,16.8132
22.692,28.2427
22.7528,33.6723
22.8135,34.9608
22.8743,38.9672
22.935,33.9736
22.9958,31.9389
23.0565,65.8838
23.1172,36.8286
23.178,14.7734
23.2387,38.7182
23.2995,30.663
23.3602,64.6078
23.421,45.5527
23.4817,39.4975
23.5425,24.4423
23.6032,54.3871
23.664,15.3319
23.7247,8.27676
23.7854,27.2267
23.8462,25.1793
23.9069,44.1319
23.9677,24.0845
24.0284,12.0371
24.0892,28.9897
24.1499,29.9422
24.2107,24.8948
24.2714,27.8474
24.3322,46.8
24.3929,30.7526
24.4536,52.7051
24.5144,27.6577
24.5751,30.6103
24.6359,7.56289
24.6966,18.5155
24.7574,32.4681
24.8181,34.4206
24.8789,31.3732
24.9396,20.3258
25.0004,-13.7216
25.0611,18.782
25.1218,18.2856
25.1826,21.7917
25.2433,21.2989
25.3041,3.80619
25.3648,8.31344
25.4256,40.677
25.4863,37.9687
25.5471,8.26048
25.6078,23.5522
25.6686,33.844
25.7293,32.1357
25.79,42.4274
25.8508,12.7192
25.9115,21.0109
25.9723,15.3026
26.033,6.59436
26.0938,18.8861
26.1545,-4.95552
26.2153,7.9813
26.276,25.9181
26.3368,19.8549
26.3975,15.7918
26.4582,6.72859
26.519,2.66541
26.5797,30.6824
26.6405,18.5799
26.7012,9.2208
26.762,26.7202
26.8227,8.15333
26.8835,5.63768
26.9442,14.1084
27.005,-5.49104
27.0657,-18.1878
27.1264,3.68744
27.1872,4.74065
27.2479,36.0912
27.3087,45.8233
27.3694,43.7308
27.4302,41.7817
27.4909,46.0724
27.5517,53.6991
27.6124,65.3258
27.6732,102.953
27.7339,91.5792
27.7946,122.206
27.8554,166.833
27.9161,205.459
27.9769,263.086
28.0376,329.713
28.0984,402.34
28.1591,586.966
28.2199,840.593
28.2806,1231.22
28.3414,1770.85
28.4021,2600.47
28.4628,3277.1
28.5236,3477.73
28.5843,3007.35
28.6451,2249.98
28.7058,1648.61
28.7666,973.233
28.8273,643.86
28.8881,483.487
28.9488,317.113
29.0096,226.74
29.0703,183.367
29.131,121.994
29.1918,87.6203
29.2525,107.247
29.3133,79.8738
29.374,57.5005
29.4348,65.1272
29.4955,45.9964
29.5563,35.3504
29.617,26.0836
29.6778,33.0062
29.7385,24.1255
29.7992,46.4652
29.86,46.0494
29.9207,34.6337
29.9815,12.4423
30.0422,-2.63693
30.103,12.1986
30.1637,20.0342
30.2245,2.86973
30.2852,25.7937
30.346,-11.6614
30.4067,32.3059
30.4674,4.27321
30.5282,19.3694
30.5889,-9.53438
30.6497,27.2511
30.7104,35.0365
30.7712,34.822
30.8319,25.6074
30.8927,40.3929
30.9534,41.1783
31.0142,42.9638
31.0749,-17.1861
31.1356,24.1145
31.1964,9.41522
31.2571,10.7159
31.3179,2.01659
31.3786,4.37829
31.4394,26.7903
31.5001,5.22745
31.5609,18.6646
31.6216,-6.89824
31.6824,0.360506
31.7431,34.7154
31.8038,9.07023
31.8646,6.34183
31.9253,44.4469
31.9861,47.552
32.0468,17.6571
32.1076,29.7622
32.1683,29.8673
32.2291,51.9724
32.2898,52.0775
32.3506,56.1826
32.4113,66.2877
32.472,75.3928
32.5328,90.4979
32.5935,117.603
32.6543,187.708
32.715,190.813
32.7758,325.918
32.8365,477.023
32.8973,630.128
32.958,888.234
33.0188,1021.34
33.0795,950.444
33.1402,792.549
33.201,538.654
33.2617,359.759
33.3225,248.864
33.3832,218.969
33.444,156.074
33.5047,113.179
33.5655,70.2845
33.6262,63.3896
33.687,48.4947
33.7477,30.5998
33.8084,18.7049
33.8692,30.81
33.9299,11.0928
33.9907,30.4645
34.0514,29.8362
34.1122,31.2078
34.1729,34.5795
34.2337,4.95121
34.2944,26.4741
34.3552,8.99702
34.4159,22.4598
34.4766,15.8926
34.5374,18.3253
34.5981,37.7581
34.6589,9.1908
34.7196,41.6235
34.7804,39.0563
34.8411,37.489
34.9019,17.9218
34.9626,34.3545
35.0234,60.7873
35.0841,53.22
35.1448,36.6528
35.2056,5.0855
35.2663,-0.481755
35.3271,33.9362
35.3878,30.3541
35.4486,10.772
35.5093,10.1899
35.5701,26.6078
35.6308,7.02574
35.6916,27.4263
35.7523,50.792
35.813,31.1578
35.8738,0.523554
35.9345,2.90517
35.9953,30.2868
36.056,6.66841
36.1168,23.05
36.1775,30.4316
36.2383,17.7896
36.299,17.1001
36.3598,10.4148
36.4205,26.7315
36.4812,10.0482
36.542,26.3649
36.6027,-3.31833
36.6635,2.89587
36.7242,18.1101
36.785,31.3243
36.8457,33.5385
36.9065,20.7527
36.9672,4.9669
37.028,41.1811
37.0887,7.39531
37.1494,41.6095
37.2102,26.8237
37.2709,24.0379
37.3317,48.2521
37.3924,37.4663
37.4532,9.68054
37.5139,23.8725
37.5747,27.0201
37.6354,16.1676
37.6962,18.3151
37.7569,36.4627
37.8176,24.6102
37.8784,29.7577
37.9391,15.9053
37.9999,36.0528
38.0606,34.2003
38.1214,13.3479
38.1821,20.4954
38.2429,26.643
38.3036,18.7905
38.3644,40.938
38.4251,51.0856
38.4858,41.2331
38.5466,-1.61936
38.6073,16.4788
38.6681,26.577
38.7288,34.6752
38.7896,21.7734
38.8503,33.8717
38.9111,43.9699
38.9718,27.0681
39.0326,20.1663
39.0933,71.2645
39.154,41.3627
39.2148,20.4609
39.2755,13.5591
39.3363,23.6573
39.397,-5.24453
39.4578,29.6903
39.5185,24.6252
39.5793,47.5601
39.64,-1.50505
39.7008,20.3839
39.7615,33.2729
39.8222,29.1618
39.883,38.0508
39.9437,23.9398
40.0045,18.8287
40.0652,19.7177
40.126,2.60666
40.1867,40.4956
40.2475,7.38459
40.3082,20.2736
40.369,48.1625
40.4297,43.0515
40.4904,18.9404
40.5512,54.8294
40.6119,28.7184
40.6727,23.6073
40.7334,20.4963
40.7942,18.3853
40.8549,29.2742
40.9157,4.1632
40.9764,51.0522
41.0372,32.9411
41.0979,11.8301
41.1586,32.7191
41.2194,30.6016
41.2801,31.4808
41.3409,14.3601
41.4016,16.2394
41.4624,36.1187
41.5231,28.9979
41.5839,7.87721
41.6446,6.75649
41.7054,28.6358
41.7661,42.515
41.8268,15.3943
41.8876,17.2736
41.9483,23.1529
42.0091,47.0321
42.0698,43.9114
42.1306,31.7907
42.1913,34.67
42.2521,23.5493
42.3128,25.4285
42.3736,27.3078
42.4343,71.1871
42.495,48.0664
42.5558,37.9456
42.6165,54.8249
42.6773,68.7042
42.738,47.5835
42.7988,30.4627
42.8595,8.34201
42.9203,28.2213
42.981,21.1006
43.0418,32.9798
43.1025,20.8591
43.1632,39.7384
43.224,13.6177
43.2847,45.4969
43.3455,20.303
43.4062,34.0724
43.467,6.84184
43.5277,18.6113
43.5885,40.3807
43.6492,25.1501
43.71,15.9195
43.7707,24.689
43.8314,24.4584
43.8922,24.2278
43.9529,11.9972
44.0137,5.76666
44.0744,49.5361
44.1352,1.30551
44.1959,27.1142
44.2567,49.9228
44.3174,7.73149
44.3782,25.5402
44.4389,5.34882
44.4996,8.15748
44.5604,30.9661
44.6211,29.7748
44.6819,17.549
44.7426,25.2542
44.8034,7.98254
44.8641,21.7225
44.9249,27.4624
44.9856,20.1849
45.0464,13.8725
45.1071,16.56
45.1678,-1.75239
45.2286,33.7033
45.2893,33.5969
45.3501,6.41547
45.4108,7.28985
45.4716,27.1642
45.5323,0.0386076
45.5931,17.9374
45.6538,21.8825
45.7146,11.8276
45.7753,30.7727
45.836,13.7178
45.8968,15.6629
45.9575,18.618
46.0183,36.8105
46.079,38.2179
46.1398,30.6253
46.2005,48.0327
46.2613,26.4402
46.322,41.8476
46.3828,34.255
46.4435,31.0395
46.5042,63.1237
46.565,45.2079
46.6257,63.2921
46.6865,73.3764
46.7472,113.461
46.808,95.5448
46.8687,152.629
46.9295,201.713
46.9902,279.797
47.051,334.882
47.1117,471.966
47.1724,680.05
47.2332,860.134
47.2939,1137.22
47.3547,1339.3
47.4154,1426.39
47.4762,1381.47
47.5369,1183.56
47.5977,933.64
47.6584,594.724
47.7192,453.808
47.7799,355.892
47.8406,242.977
47.9014,216.061
47.9621,148.145
48.0229,117.229
48.0836,92.3134
48.1444,76.3976
48.2051,68.4818
48.2659,66.566
48.3266,58.6503
48.3874,40.7345
48.4481,21.8187
48.5088,33.2079
48.5696,20.7497
48.6303,36.3357
48.6911,44.0101
48.7518,24.6845
48.8126,34.3589
48.8733,51.0332
48.9341,19.8032
48.9948,28.7642
49.0556,15.7083
49.1163,26.5549
49.177,36.5064
49.2378,9.52621
49.2985,22.546
49.3593,26.5658
49.42,29.5856
49.4808,-9.39454
49.5415,31.3206
49.6023,44.047
49.663,23.7792
49.7238,13.4402
49.7845,-3.04089
49.8452,6.38387
49.906,48.8086
49.9667,1.23341
50.0275,19.5944
50.0882,23.7536
50.149,30.9012
50.2097,1.99482
50.2705,7.02655
50.3312,26.0583
50.392,34.09
50.4527,8.12175
50.5134,44.1535
50.5742,20.1852
50.6349,39.2169
50.6957,24.2487
50.7564,37.2831
50.8172,23.323
50.8779,36.3628
50.9387,41.4027
50.9994,40.4425
51.0602,15.4824
51.1209,21.5222
51.1816,13.5621
51.2424,15.567
51.3031,44.493
51.3639,16.4144
51.4246,24.3358
51.4854,23.2572
51.5461,22.1786
51.6069,24.1
51.6676,31.0213
51.7284,24.9427
51.7891,25.8641
51.8498,42.7855
51.9106,30.7069
51.9713,13.6283
52.0321,19.5497
52.0928,24.4711
52.1536,28.3925
52.2143,48.3139
52.2751,22.2353
52.3358,22.1567
52.3966,49.0781
52.4573,0.99946
52.518,10.9209
52.5788,7.84225
52.6395,40.7636
52.7003,15.685
52.761,3.60643
52.8218,10.5278
52.8825,20.4492
52.9433,5.37061
53.004,-2.708
53.0648,0.130622
53.1255,-3.02683
53.1862,18.723
53.247,5.47288
53.3077,22.2227
53.3685,-4.02742
53.4292,34.5983
53.49,17.224
53.5507,27.7695
53.6115,9.27498
53.6722,-1.21955
53.733,35.2489
53.7937,52.7173
53.8544,38.1857
53.9152,28.6524
53.9759,24.1157
54.0367,23.2231
54.0974,13.1525
54.1582,27.082
54.2189,17.0151
54.2797,-1.07203
54.3404,11.7527
54.4012,7.57749
54.4619,14.4022
54.5226,17.2272
54.5834,1.0523
54.6441,18.9094
54.7049,28.7666
54.7656,31.6237
54.8264,4.50623
54.8871,3.53752
54.9479,21.6767
55.0086,7.81582
55.0694,28.1901
55.1301,50.5643
55.1908,35.9386
55.2516,22.4717
55.3123,10.0842
55.3731,56.0071
55.4338,45.93
55.4946,65.8529
55.5553,79.7758
55.6161,90.6987
55.6768,122.622
55.7376,179.544
55.7983,202.467
55.859,278.39
55.9198,370.313
55.9805,480.236
56.0413,584.159
56.102,753.082
56.1628,930.005
56.2235,1047.93
56.2843,1056.85
56.345,885.774
56.4058,770.696
56.4665,645.619
56.5272,478.542
56.588,365.465
56.6487,257.388
56.7095,204.311
56.7702,92.2338
56.831,93.1567
56.8917,104.08
56.9525,93.0025
57.0132,74.9254
57.074,56.8483
57.1347,55.7713
57.1954,46.6942
57.2562,27.6171
57.3169,30.6369
57.3777,36.8506
57.4384,13.1156
57.4992,31.4833
57.5599,34.851
57.6207,22.2188
57.6814,22.6016
57.7422,2.01451
57.8029,6.48918
57.8636,-0.943013
57.9244,4.64211
57.9851,0.227241
58.0459,15.8193
58.1066,16.2846
58.1674,28.6864
58.2281,24.1179
58.2889,18.6087
58.3496,33.129
58.4104,18.7083
58.4711,49.2876
58.5318,64.8668
58.5926,66.4461
58.6533,99.0253
58.7141,126.605
58.7748,97.1839
58.8356,182.763
58.8963,180.342
58.9571,193.922
59.0178,210.501
59.0786,175.08
59.1393,171.659
59.2,134.239
59.2608,100.818
59.3215,60.3972
59.3823,68.9765
59.443,57.5558
59.5038,42.135
59.5645,45.7143
59.6253,26.2936
59.686,5.87282
59.7468,36.4521
59.8075,28.0313
59.8682,33.6106
59.929,31.1899
59.9897,19.7691
60.0505,11.3484
60.1112,36.9277
60.172,14.5069
60.2327,5.08618
60.2935,33.6654
60.3542,9.24471
60.415,13.824
60.4757,37.4032
60.5364,28.9825
60.5972,13.5618
60.6579,19.141
60.7187,-1.27971
60.7794,26.2605
60.8402,33.8006
60.9009,22.3408
60.9617,26.8713
61.0224,-1.79307
61.0832,31.3928
61.1439,35.5787
61.2046,37.7646
61.2654,14.9505
61.3261,0.136432
61.3869,38.3264
61.4476,10.5243
61.5084,23.726
61.5691,38.9277
61.6299,17.1295
61.6906,27.3312
61.7514,8.53294
61.8121,32.7347
61.8728,27.9364
61.9336,5.13813
61.9943,50.3399
62.0551,16.5416
62.1158,24.7433
62.1766,36.9451
62.2373,23.1468
62.2981,18.3485
62.3588,44.5503
62.4196,47.752
62.4803,22.9537
62.541,34.1555
62.6018,42.3572
62.6625,39.5589
62.7233,26.7607
62.784,47.9624
62.8448,59.1641
62.9055,36.3659
62.9663,-0.432399
63.027,36.7563
63.0878,27.945
63.1485,17.1336
63.2092,37.3223
63.27,23.511
63.3307,30.6997
63.3915,25.8866
63.4522,17.07
63.513,27.2535
63.5737,36.4369
63.6345,13.6203
63.6952,41.8037
63.756,9.98713
63.8167,28.1706
63.8774,26.354
63.9382,9.53739
63.9989,24.7208
64.0597,31.9042
64.1204,54.0877
64.1812,61.2711
64.2419,56.4545
64.3027,24.6379
64.3634,13.8213
64.4242,29.0048
64.4849,32.1882
64.5456,25.3716
64.6064,22.555
64.6671,23.7384
64.7279,42.9219
64.7886,29.1053
64.8494,28.2887
64.9101,24.4721
64.9709,41.6555
65.0316,33.839
65.0924,37.9796
65.1531,30.0989
65.2138,19.2183
65.2746,-6.66242
65.3353,46.2479
65.3961,24.1582
65.4568,39.0685
65.5176,18.9788
65.5783,50.8782
65.6391,41.7556
65.6998,18.6331
65.7606,48.5105
65.8213,6.38798
65.882,14.2654
65.9428,48.1429
66.0035,31.0203
66.0643,28.8978
66.125,20.7752
66.1858,38.6527
66.2465,6.53013
66.3073,8.40758
66.368,13.285
66.4288,12.1625
66.4895,33.0399
66.5502,40.9174
66.611,28.7948
66.6717,27.6723
66.7325,10.5497
66.7932,31.4272
66.854,1.30462
66.9147,26.2216
66.9755,58.1386
67.0362,21.0556
67.097,27.9725
67.1577,37.8895
67.2184,6.86409
67.2792,42.8674
67.3399,32.8708
67.4007,16.8509
67.4614,53.8193
67.5222,40.7877
67.5829,37.7561
67.6437,42.7245
67.7044,22.6929
67.7652,21.6613
67.8259,18.6297
67.8866,16.5981
67.9474,44.5665
68.0081,30.5349
68.0689,39.5033
68.1296,20.4717
68.1904,27.4401
68.2511,45.4085
68.3119,44.3769
68.3726,56.3453
68.4334,31.3137
68.4941,40.2821
68.5548,39.2505
68.6156,37.2189
68.6763,50.1873
68.7371,57.1557
68.7978,48.1242
68.8586,67.0926
68.9193,115.061
68.9801,89.0294
69.0408,122.998
69.1016,151.966
69.1623,163.935
69.223,206.903
69.2838,167.871
69.3445,190.84
69.4053,188.808
69.466,151.777
69.5268,127.745
69.5875,106.713
69.6483,100.682
69.709,89.6502
69.7698,71.6186
69.8305,63.587
69.8912,34.5554
69.952,36.5238
70.0127,32.4922
70.0735,42.4606
70.1342,38.429
70.195,45.3975
70.2557,24.3659
70.3165,37.3343
70.3772,24.3027
70.438,36.2711
70.4987,10.2395
70.5594,53.2531
70.6202,56.2894
70.6809,22.3256
70.7417,35.3619
70.8024,36.3982
70.8632,39.4344
70.9239,21.4707
70.9847,11.4915
71.0454,57.4813
71.1062,30.4712
71.1669,26.461
71.2276,28.4509
71.2884,24.4407
71.3491,-0.569456
71.4099,34.403
71.4706,28.3755
71.5314,55.3479
71.5921,31.3204
71.6529,13.2929
71.7136,37.258
71.7744,33.2083
71.8351,13.1587
71.8958,26.109
71.9566,23.0593
72.0173,19.0097
72.0781,37.96
72.1388,21.9104
72.1996,21.8607
72.2603,2.81108
72.3211,8.76143
72.3818,31.7118
72.4426,24.6621
72.5033,23.6125
72.564,15.5628
72.6248,29.5132
72.6855,42.4635
72.7463,44.4139
72.807,40.3642
72.8678,16.3146
72.9285,-4.73509
72.9893,27.0677
73.05,30.8705
73.1108,0.673323
73.1715,15.4965
73.2322,35.3196
73.293,55.1427
73.3537,-2.03411
73.4145,31.7265
73.4752,12.4871
73.536,26.2477
73.5967,32.0083
73.6575,28.7689
73.7182,40.5295
73.779,37.2901
73.8397,20.0507
73.9004,31.8114
73.9612,23.572
74.0219,22.3326
74.0827,35.0638
74.1434,9.73622
74.2042,20.4086
74.2649,40.0811
74.3257,26.7535
74.3864,16.4259
74.4472,34.0984
74.5079,24.7708
74.5686,20.4432
74.6294,30.1157
74.6901,22.7881
74.7509,9.46054
74.8116,20.133
74.8724,33.867
74.9331,26.6317
74.9939,15.3965
75.0546,42.1613
75.1154,18.926
75.1761,39.6908
75.2368,16.4556
75.2976,42.2203
75.3583,3.9851
75.4191,45.8716
75.4798,12.7581
75.5406,0.644669
75.6013,57.5514
75.6621,62.458
75.7228,32.3647
75.7836,70.2714
75.8443,75.1781
75.905,89.0848
75.9658,53.9915
76.0265,102.898
76.0873,112.805
76.148,102.712
76.2088,118.618
76.2695,185.525
76.3303,206.432
76.391,267.338
76.4518,322.245
76.5125,293.152
76.5732,267.058
76.634,262.965
76.6947,303.872
76.7555,286.778
76.8162,207.685
76.877,148.592
76.9377,120.499
76.9985,97.4052
77.0592,88.3119
77.12,75.2186
77.1807,72.1253
77.2414,51.0319
77.3022,51.9386
77.3629,55.8453
77.4237,47.752
77.4844,49.6587
77.5452,84.5654
77.6059,25.4721
77.6667,26.3788
77.7274,32.2854
77.7882,54.1921
77.8489,34.0988
77.9096,18.0721
77.9704,45.0788
78.0311,27.0854
78.0919,20.0921
78.1526,31.0987
78.2134,54.1053
78.2741,64.112
78.3349,51.1186
78.3956,46.1252
78.4564,77.1319
78.5171,100.139
78.5778,101.145
78.6386,137.152
78.6993,136.158
78.7601,148.165
78.8208,198.172
78.8816,177.178
78.9423,201.185
79.0031,166.192
79.0638,178.198
79.1246,168.205
79.1853,139.212
79.246,116.218
79.3068,105.225
79.3675,94.2314
79.4283,69.2381
79.489,61.2447
79.5498,51.2513
79.6105,26.258
79.6713,42.2646
79.732,63.2712
79.7928,29.2779
79.8535,25.2845
79.9142,10.2912
79.975,37.2978
80.0357,22.3044
80.0965,10.3111
80.1572,5.3177
80.218,13.3276
80.2787,44.3442
80.3395,39.3607
80.4002,16.381
80.461,4.40885
80.5217,24.4367
80.5824,11.4792
80.6432,28.5563
80.7039,2.64401
80.7647,13.7317
80.8254,31.8274
80.8862,26.9389
80.9469,31.0606
81.0077,12.2027
81.0684,23.3447
81.1292,22.4867
81.1899,11.6287
81.2506,44.6815
81.3114,60.6897
81.3721,17.6745
81.4329,37.6123
81.4936,50.5501
81.5544,23.488
81.6151,40.4258
81.6759,27.2837
81.7366,9.98269