File: Data_XRD/LiF-Pure.csv
20,2.15976
20.05,2.1213
20.1,2.22921
20.15,2.24527
20.2,2.34048
20.25,2.21763
20.3,2.13026
20.35,2.0496
20.4,2.0791
20.45,2.08134
20.5,2.36438
20.55,2.48163
20.6,2.27962
20.65,2.25087
20.7,2.2251
20.75,2.10673
20.8,2.16274
20.85,2.23518
20.9,2.04325
20.95,2.02421
21,2.02458
21.05,2.19299
21.1,2.14333
21.15,2.12578
21.2,2.12055
21.25,2.11457
21.3,2.24415
21.35,1.93833
21.4,2.15602
21.45,2.01002
21.5,2.10748
21.55,2.0862
21.6,2.03541
21.65,1.99583
21.7,2.0959
21.75,1.93161
21.8,2.06043
21.85,2.12839
21.9,2.14034
21.95,2.00853
22,1.9753
22.05,2.00405
22.1,1.96932
22.15,2.01898
22.2,2.1269
22.25,2.09441
22.3,2.00703
22.35,1.90174
22.4,1.99173
22.45,2.01674
22.5,2.02795
22.55,1.85319
22.6,2.01189
22.65,1.96857
22.7,1.96335
22.75,1.87634
22.8,2.07611
22.85,1.97754
22.9,1.8756
22.95,1.99135
23,1.85245
23.05,2.01301
23.1,1.78635
23.15,1.98575
23.2,2.06939
23.25,1.9514
23.3,1.97343
23.35,1.97828
23.4,2.00442
23.45,1.9092
23.5,1.8741
23.55,1.72101
23.6,1.81623
23.65,1.88605
23.7,1.79196
23.75,1.97567
23.8,1.83564
23.85,1.86215
23.9,1.74229
23.95,1.81249
24,1.73707
24.05,1.79681
24.1,1.80316
24.15,1.79644
24.2,1.86141
24.25,1.76731
24.3,1.69412
24.35,1.84236
24.4,1.82631
24.45,1.78673
24.5,1.67172
24.55,1.87074
24.6,1.66126
24.65,1.84311
24.7,1.7815
24.75,1.724
24.8,1.74267
24.85,1.78001
24.9,1.86215
24.95,1.72773
25,1.64521
25.05,1.76694
25.1,1.67807
25.15,1.63326
25.2,1.68964
25.25,1.88493
25.3,1.60749
25.35,1.75872
25.4,1.78859
25.45,1.66537
25.5,1.62019
25.55,1.67097
25.6,1.53505
25.65,1.70607
25.7,1.74453
25.75,1.67732
25.8,1.62616
25.85,1.65305
25.9,1.60862
25.95,1.62019
26,1.58621
26.05,1.36254
26.1,1.77702
26.15,1.57501
26.2,1.66612
26.25,1.69562
26.3,1.65828
26.35,1.52012
26.4,1.52535
26.45,1.6467
26.5,1.42117
26.55,1.48241
26.6,1.58658
26.65,1.54066
26.7,1.43685
26.75,1.68815
26.8,1.69748
26.85,1.55709
26.9,1.46523
26.95,1.60413
27,1.46224
27.05,1.60862
27.1,1.40772
27.15,1.43498
27.2,1.38084
27.25,1.58098
27.3,1.67284
27.35,1.50369
27.4,1.48502
27.45,1.37599
27.5,1.43834
27.55,1.41258
27.6,1.59517
27.65,1.63587
27.7,1.60749
27.75,1.35321
27.8,1.46374
27.85,1.49473
27.9,1.36441
27.95,1.31251
28,1.48875
28.05,1.31661
28.1,1.34985
28.15,1.432
28.2,1.61758
28.25,1.55111
28.3,1.52609
28.35,1.3084
28.4,1.34126
28.45,1.31587
28.5,1.4671
28.55,1.40511
28.6,1.58845
28.65,1.53655
28.7,1.2087
28.75,1.3786
28.8,1.36553
28.85,1.25911
28.9,1.35321
28.95,1.28562
29,1.30877
29.05,1.31549
29.1,1.34985
29.15,1.35171
29.2,1.40399
29.25,1.30989
29.3,1.30056
29.35,1.52983
29.4,1.40212
29.45,1.43536
29.5,1.24305
29.55,1.25164
29.6,1.27666
29.65,1.25388
29.7,1.24044
29.75,1.36441
29.8,1.34126
29.85,1.27442
29.9,1.32371
29.95,1.23671
30,1.41557
30.05,1.34835
30.1,1.34051
30.15,1.16763
30.2,1.39279
30.25,1.33827
30.3,1.3435
30.35,1.30317
30.4,1.30093
30.45,1.31288
30.5,1.23559
30.55,1.26023
30.6,1.29757
30.65,1.22625
30.7,1.24193
30.75,1.13925
30.8,1.42752
30.85,1.32483
30.9,1.33118
30.95,1.30616
31,1.22326
31.05,1.16315
31.1,1.28786
31.15,1.24492
31.2,1.23895
31.25,1.32632
31.3,1.22887
31.35,1.18742
31.4,1.38271
31.45,1.32894
31.5,1.37935
31.55,1.30205
31.6,1.30952
31.65,1.33641
31.7,1.30989
31.75,1.29234
31.8,1.168
31.85,1.29944
31.9,1.27927
31.95,1.29533
32,1.28226
32.05,1.19862
32.1,1.30317
32.15,1.28077
32.2,1.28152
32.25,1.23447
32.3,1.27629
32.35,1.36665
32.4,1.2102
32.45,1.10191
32.5,1.34947
32.55,1.15643
32.6,1.11087
32.65,1.17248
32.7,1.14709
32.75,1.18555
32.8,1.16949
32.85,1.12357
32.9,1.21169
32.95,1.1568
33,1.21505
33.05,1.16875
33.1,1.17771
33.15,1.16053
33.2,1.2102
33.25,1.36105
33.3,1.09967
33.35,1.16165
33.4,1.30243
33.45,1.33715
33.5,1.16352
33.55,1.18219
33.6,1.25911
33.65,1.09929
33.7,1.13813
33.75,1.18182
33.8,1.08623
33.85,1.30243
33.9,1.12917
33.95,1.17398
34,1.17248
34.05,1.19227
34.1,1.16875
34.15,1.24903
34.2,1.10975
34.25,1.15568
34.3,1.12693
34.35,1.22289
34.4,1.1217
34.45,1.08249
34.5,1.12581
34.55,1.32035
34.6,1.29496
34.65,1.25799
34.7,1.30915
34.75,1.34462
34.8,1.54215
34.85,1.46486
34.9,1.29682
34.95,1.17734
35,1.21617
35.05,1.19078
35.1,1.15568
35.15,1.17099
35.2,1.1919
35.25,1.17622
35.3,1.168
35.35,1.10378
35.4,1.11423
35.45,1.01603
35.5,1.12469
35.55,1.2326
35.6,1.35433
35.65,1.05411
35.7,1.15904
35.75,1.14224
35.8,1.0037
35.85,1.07465
35.9,1.07614
35.95,1.00818
36,1.24156
36.05,1.1217
36.1,1.1863
36.15,1.05971
36.2,1.07241
36.25,1.06905
36.3,1.14074
36.35,1.03582
36.4,1.17173
36.45,1.03059
36.5,1.08399
36.55,1.04963
36.6,1.1034
36.65,1.01192
36.7,1.01341
36.75,0.98317
36.8,1.08921
36.85,1.02163
36.9,1.11572
36.95,1.02835
37,1.1497
37.05,1.13439
37.1,0.96674
37.15,1.11535
37.2,1.18592
37.25,1.17024
37.3,1.37748
37.35,1.52348
37.4,1.43946
37.45,1.53393
37.5,1.38271
37.55,1.48987
37.6,1.33641
37.65,1.43834
37.7,1.55634
37.75,1.42042
37.8,1.41034
37.85,1.32968
37.9,1.32296
37.95,1.51452
38,1.39988
38.05,1.51601
38.1,1.46411
38.15,1.61907
38.2,1.58173
38.25,1.91742
38.3,2.3375
38.35,3.25009
38.4,5.38408
38.45,12.02055
38.5,24.00078
38.55,37.65384
38.6,56.77463
38.65,79.89418
38.7,86.92608
38.75,46.95341
38.8,35.49409
38.85,10.78646
38.9,3.69817
38.95,2.46856
39,2.08769
39.05,1.78561
39.1,1.67919
39.15,1.84983
39.2,1.47046
39.25,1.46784
39.3,1.41669
39.35,1.25052
39.4,1.33603
39.45,1.37001
39.5,1.32595
39.55,1.11311
39.6,1.19227
39.65,0.98877
39.7,1.34649
39.75,1.12095
39.8,1.26994
39.85,1.18742
39.9,1.20908
39.95,1.24231
40,1.17846
40.05,1.20571
40.1,1.168
40.15,1.15792
40.2,1.2143
40.25,1.32222
40.3,1.2214
40.35,1.36964
40.4,1.38569
40.45,1.26397
40.5,1.13141
40.55,1.01976
40.6,1.08623
40.65,1.14074
40.7,1.06569
40.75,1.12021
40.8,1.0515
40.85,1.13178
40.9,1.03731
40.95,1.06532
41,1.09967
41.05,1.1049
41.1,1.0388
41.15,1.06158
41.2,1.01043
41.25,1.06942
41.3,1.08025
41.35,0.98615
41.4,0.99362
41.45,1.05337
41.5,0.90251
41.55,1.03171
41.6,1.0754
41.65,0.92454
41.7,1.05486
41.75,1.01752
41.8,0.87637
41.85,1.11647
41.9,0.97869
41.95,1.00333
42,1.05449
42.05,1.00072
42.1,1.04739
42.15,1.02275
42.2,1.0332
42.25,0.97458
42.3,0.88571
42.35,1.07465
42.4,1.06233
42.45,1.01416
42.5,0.99362
42.55,0.96898
42.6,0.85136
42.65,1.05897
42.7,0.93985
42.75,0.93089
42.8,1.07502
42.85,0.99101
42.9,1.00669
42.95,1.03395
43,0.92118
43.05,0.96263
43.1,0.98951
43.15,0.97495
43.2,0.85098
43.25,1.05225
43.3,1.2199
43.35,1.17472
43.4,1.27069
43.45,1.22775
43.5,1.25426
43.55,1.24978
43.6,1.2733
43.65,1.10751
43.7,1.13327
43.75,1.39727
43.8,1.09071
43.85,1.26322
43.9,1.23559
43.95,1.16539
44,1.27554
44.05,1.21393
44.1,1.26172
44.15,1.20049
44.2,1.36404
44.25,1.35956
44.3,1.36553
44.35,1.38084
44.4,1.54215
44.45,1.59331
44.5,1.76096
44.55,2.02309
44.6,2.68439
44.65,3.55591
44.7,6.57299
44.75,15.43046
44.8,30.42852
44.85,47.0561
44.9,70.59797
44.95,94.53153
45,88.97008
45.05,48.71848
45.1,41.07458
45.15,16.49876
45.2,4.53347
45.25,2.85242
45.3,2.25684
45.35,1.67807
45.4,1.75312
45.45,1.62953
45.5,1.46374
45.55,1.43237
45.6,1.21094
45.65,1.28264
45.7,1.05747
45.75,1.11348
45.8,1.16987
45.85,1.10714
45.9,1.01267
45.95,1.01603
46,1.07428
46.05,1.08884
46.1,0.98429
46.15,0.97794
46.2,1.05859
46.25,1.00744
46.3,0.99138
46.35,0.92044
46.4,0.87861
46.45,0.96935
46.5,0.96972
46.55,0.93948
46.6,0.95217
46.65,0.91932
46.7,0.87861
46.75,0.88384
46.8,0.97196
46.85,0.85472
46.9,0.89131
46.95,0.90923
47,0.91035
47.05,0.90699
47.1,0.77593
47.15,0.84426
47.2,0.84202
47.25,0.87525
47.3,0.88048
47.35,0.83157
47.4,0.80319
47.45,0.71768
47.5,0.89056
47.55,0.89206
47.6,0.81551
47.65,0.85845
47.7,0.82559
47.75,0.85696
47.8,0.78078
47.85,0.90139
47.9,0.79049
47.95,0.85472
48,0.77742
48.05,0.75016
48.1,0.77033
48.15,0.78937
48.2,0.77257
48.25,0.75763
48.3,0.72851
48.35,0.74979
48.4,0.7595
48.45,0.66204
48.5,0.70872
48.55,0.75128
48.6,0.84053
48.65,0.78004
48.7,0.69303
48.75,0.79012
48.8,0.81439
48.85,0.73485
48.9,0.74419
48.95,0.69266
49,0.68034
49.05,0.90513
49.1,0.6893
49.15,0.79012
49.2,0.7946
49.25,0.76025
49.3,0.63889
49.35,0.70162
49.4,0.58176
49.45,0.72664
49.5,0.62993
49.55,0.65905
49.6,0.74158
49.65,0.72104
49.7,0.6079
49.75,0.59558
49.8,0.69266
49.85,0.66391
49.9,0.73411
49.95,0.66876
50,0.81551
50.05,0.68743
50.1,0.73598
50.15,0.71058
50.2,0.64972
50.25,0.67959
50.3,0.73224
50.35,0.62545
50.4,0.59334
50.45,0.6949
50.5,0.68818
50.55,0.7539
50.6,0.60678
50.65,0.59931
50.7,0.64113
50.75,0.59744
50.8,0.57989
50.85,0.60827
50.9,0.52463
50.95,0.6135
51,0.70722
51.05,0.69154
51.1,0.58848
51.15,0.63665
51.2,0.61014
51.25,0.64412
51.3,0.66727
51.35,0.58624
51.4,0.51529
51.45,0.56234
51.5,0.65084
51.55,0.63329
51.6,0.64711
51.65,0.62358
51.7,0.53434
51.75,0.54965
51.8,0.67959
51.85,0.59632
51.9,0.6247
51.95,0.54479
52,0.46713
52.05,0.58661
52.1,0.53172
52.15,0.497
52.2,0.52724
52.25,0.63292
52.3,0.58848
52.35,0.55375
52.4,0.56757
52.45,0.52799
52.5,0.53733
52.55,0.6023
52.6,0.57952
52.65,0.63068
52.7,0.47497
52.75,0.65009
52.8,0.497
52.85,0.52463
52.9,0.5713
52.95,0.52127
53,0.46451
53.05,0.5672
53.1,0.4436
53.15,0.56794
53.2,0.59632
53.25,0.51679
53.3,0.51119
53.35,0.55301
53.4,0.61163
53.45,0.46974
53.5,0.52202
53.55,0.5433
53.6,0.5026
53.65,0.45144
53.7,0.60491
53.75,0.65756
53.8,0.59184
53.85,0.48318
53.9,0.51679
53.95,0.55002
54,0.497
54.05,0.51903
54.1,0.52127
54.15,0.55973
54.2,0.38946
54.25,0.52762
54.3,0.53434
54.35,0.60192
54.4,0.49065
54.45,0.56496
54.5,0.59931
54.55,0.47011
54.6,0.54815
54.65,0.53882
54.7,0.48804
54.75,0.43912
54.8,0.48206
54.85,0.52874
54.9,0.5601
54.95,0.4858
55,0.55525
55.05,0.45667
55.1,0.49924
55.15,0.61387
55.2,0.50708
55.25,0.42717
55.3,0.51791
55.35,0.5026
55.4,0.52127
55.45,0.5616
55.5,0.4507
55.55,0.46003
55.6,0.48281
55.65,0.45928
55.7,0.4914
55.75,0.54778
55.8,0.50409
55.85,0.47198
55.9,0.53658
55.95,0.51978
56,0.49028
56.05,0.50521
56.1,0.50633
56.15,0.58773
56.2,0.55637
56.25,0.4731
56.3,0.58288
56.35,0.43389
56.4,0.47235
56.45,0.56234
56.5,0.49999
56.55,0.48356
56.6,0.55151
56.65,0.46713
56.7,0.44211
56.75,0.47198
56.8,0.49177
56.85,0.38722
56.9,0.50484
56.95,0.42493
57,0.45966
57.05,0.55338
57.1,0.37788
57.15,0.46675
57.2,0.45518
57.25,0.52762
57.3,0.38759
57.35,0.50297
57.4,0.42269
57.45,0.51567
57.5,0.41037
57.55,0.47907
57.6,0.47086
57.65,0.50857
57.7,0.44696
57.75,0.48729
57.8,0.52836
57.85,0.38871
57.9,0.51791
57.95,0.50111
58,0.52724
58.05,0.54442
58.1,0.45032
58.15,0.46414
58.2,0.40178
58.25,0.61649
58.3,0.39058
58.35,0.5026
58.4,0.52538
58.45,0.49886
58.5,0.62209
58.55,0.5657
58.6,0.45816
58.65,0.39618
58.7,0.53845
58.75,0.43576
58.8,0.46339
58.85,0.54629
58.9,0.58885
58.95,0.43725
59,0.36743
59.05,0.40589
59.1,0.52538
59.15,0.45779
59.2,0.39917
59.25,0.44136
59.3,0.45966
59.35,0.44136
59.4,0.47497
59.45,0.42867
59.5,0.47422
59.55,0.41112
59.6,0.39655
59.65,0.39469
59.7,0.42493
59.75,0.39581
59.8,0.44397
59.85,0.37079
59.9,0.48281
59.95,0.45256
60,0.48281
60.05,0.54778
60.1,0.44883
60.15,0.44211
60.2,0.4731
60.25,0.5138
60.3,0.40365
60.35,0.41298
60.4,0.41298
60.45,0.48468
60.5,0.41336
60.55,0.43277
60.6,0.56533
60.65,0.39805
60.7,0.41597
60.75,0.43949
60.8,0.48617
60.85,0.45443
60.9,0.45966
60.95,0.45182
61,0.35361
61.05,0.46563
61.1,0.39581
61.15,0.43688
61.2,0.43427
61.25,0.39655
61.3,0.41336
61.35,0.35361
61.4,0.45406
61.45,0.49289
61.5,0.39991
61.55,0.43688
61.6,0.39991
61.65,0.41037
61.7,0.49737
61.75,0.438
61.8,0.48542
61.85,0.42941
61.9,0.37191
61.95,0.44883
62,0.51679
62.05,0.47347
62.1,0.40402
62.15,0.41112
62.2,0.44472
62.25,0.33718
62.3,0.49177
62.35,0.41037
62.4,0.36033
62.45,0.45816
62.5,0.36519
62.55,0.45966
62.6,0.51641
62.65,0.42418
62.7,0.42269
62.75,0.43165
62.8,0.41634
62.85,0.50335
62.9,0.51828
62.95,0.47907
63,0.41224
63.05,0.40663
63.1,0.44883
63.15,0.58549
63.2,0.46227
63.25,0.47235
63.3,0.42605
63.35,0.52127
63.4,0.50148
63.45,0.5489
63.5,0.61201
63.55,0.46489
63.6,0.54591
63.65,0.44024
63.7,0.52874
63.75,0.47497
63.8,0.56197
63.85,0.4604
63.9,0.5489
63.95,0.51492
64,0.5728
64.05,0.54181
64.1,0.58363
64.15,0.51828
64.2,0.55637
64.25,0.42082
64.3,0.584
64.35,0.49737
64.4,0.49065
64.45,0.47049
64.5,0.53247
64.55,0.50185
64.6,0.50372
64.65,0.52388
64.7,0.58288
64.75,0.62283
64.8,0.54031
64.85,0.60939
64.9,0.61201
64.95,0.71843
65,0.8114
65.05,0.90139
65.1,1.06793
65.15,1.35321
65.2,1.87112
65.25,3.05368
65.3,8.10954
65.35,15.10522
65.4,21.89815
65.45,29.29748
65.5,34.7077
65.55,21.81264
65.6,14.37896
65.65,16.03537
65.7,14.55968
65.75,4.73735
65.8,1.83863
65.85,1.14448
65.9,1.01565
65.95,0.85696
66,0.69826
66.05,0.69229
66.1,0.52351
66.15,0.6359
66.2,0.55973
66.25,0.52986
66.3,0.55114
66.35,0.50111
66.4,0.51866
66.45,0.57952
66.5,0.50409
66.55,0.51753
66.6,0.44323
66.65,0.40514
66.7,0.53882
66.75,0.36108
66.8,0.52351
66.85,0.44734
66.9,0.51455
66.95,0.48505
67,0.39506
67.05,0.43688
67.1,0.37564
67.15,0.44547
67.2,0.47833
67.25,0.37639
67.3,0.42755
67.35,0.41485
67.4,0.44173
67.45,0.39133
67.5,0.32001
67.55,0.37004
67.6,0.30843
67.65,0.41485
67.7,0.36295
67.75,0.39954
67.8,0.38684
67.85,0.42904
67.9,0.33494
67.95,0.4268
68,0.38796
68.05,0.37116
68.1,0.44024
68.15,0.38311
68.2,0.35585
68.25,0.36145
68.3,0.34764
68.35,0.29835
68.4,0.38087
68.45,0.40813
68.5,0.37975
68.55,0.36519
68.6,0.36444
68.65,0.40589
68.7,0.45107
68.75,0.29013
68.8,0.26175
68.85,0.25503
68.9,0.41821
68.95,0.36556
69,0.41037
69.05,0.45891
69.1,0.35361
69.15,0.30731
69.2,0.36071
69.25,0.28528
69.3,0.42941
69.35,0.38684
69.4,0.438
69.45,0.31291
69.5,0.42717
69.55,0.43725
69.6,0.3398
69.65,0.33158
69.7,0.29125
69.75,0.40253
69.8,0.3047
69.85,0.42941
69.9,0.43987
69.95,0.36929
70,0.31366
70.05,0.35361
70.1,0.33083
70.15,0.24906
70.2,0.30619
70.25,0.33606
70.3,0.35847
70.35,0.32075
70.4,0.29499
70.45,0.32449
70.5,0.34614
70.55,0.33606
70.6,0.31366
70.65,0.31702
70.7,0.28005
70.75,0.30806
70.8,0.40663
70.85,0.30059
70.9,0.3144
70.95,0.34166
71,0.30134
71.05,0.31515
71.1,0.27445
71.15,0.33606
71.2,0.33121
71.25,0.36481
71.3,0.36257
71.35,0.40551
71.4,0.4731
71.45,0.31216
71.5,0.26885
71.55,0.37004
71.6,0.32337
71.65,0.28453
71.7,0.26885
71.75,0.34876
71.8,0.28565
71.85,0.39319
71.9,0.35137
71.95,0.36183
72,0.35174
72.05,0.19753
72.1,0.20873
72.15,0.29312
72.2,0.37041
72.25,0.32635
72.3,0.292
72.35,0.3622
72.4,0.34913
72.45,0.34241
72.5,0.35884
72.55,0.30992
72.6,0.28416
72.65,0.24533
72.7,0.30059
72.75,0.31216
72.8,0.33644
72.85,0.25055
72.9,0.23412
72.95,0.21769
73,0.3032
73.05,0.35959
73.1,0.26138
73.15,0.3103
73.2,0.33158
73.25,0.29387
73.3,0.26773
73.35,0.28229
73.4,0.29648
73.45,0.32934
73.5,0.36444
73.55,0.20761
73.6,0.27221
73.65,0.38572
73.7,0.24869
73.75,0.27333
73.8,0.26661
73.85,0.27221
73.9,0.27146
73.95,0.20425
74,0.25466
74.05,0.32187
74.1,0.32225
74.15,0.32075
74.2,0.28789
74.25,0.27034
74.3,0.32561
74.35,0.20686
74.4,0.21732
74.45,0.30843
74.5,0.21545
74.55,0.24084
74.6,0.28341
74.65,0.26063
74.7,0.31664
74.75,0.22927
74.8,0.30544
74.85,0.264
74.9,0.34614
74.95,0.24346
75,0.3088
75.05,0.28416
75.1,0.20686
75.15,0.26922
75.2,0.21695
75.25,0.28789
75.3,0.30171
75.35,0.2569
75.4,0.35623
75.45,0.2274
75.5,0.3159
75.55,0.26213
75.6,0.27632
75.65,0.28976
75.7,0.30656
75.75,0.33569
75.8,0.21956
75.85,0.24981
75.9,0.27781
75.95,0.23972
76,0.2681
76.05,0.26624
76.1,0.27296
76.15,0.18745
76.2,0.33158
76.25,0.30694
76.3,0.29909
76.35,0.27296
76.4,0.27818
76.45,0.30843
76.5,0.22031
76.55,0.21583
76.6,0.27594
76.65,0.26101
76.7,0.32747
76.75,0.27818
76.8,0.31403
76.85,0.27221
76.9,0.28341
76.95,0.2696
77,0.22255
77.05,0.2386
77.1,0.23338
77.15,0.34801
77.2,0.33083
77.25,0.27034
77.3,0.31851
77.35,0.25765
77.4,0.28042
77.45,0.24757
77.5,0.24906
77.55,0.24084
77.6,0.33419
77.65,0.3215
77.7,0.22665
77.75,0.26586
77.8,0.25055
77.85,0.35735
77.9,0.35324
77.95,0.3327
78,0.29536
78.05,0.33494
78.1,0.21097
78.15,0.23375
78.2,0.36183
78.25,0.37041
78.3,0.41933
78.35,0.42568
78.4,0.5082
78.45,0.54479
78.5,0.88123
78.55,1.82631
78.6,3.85761
78.65,5.29671
78.7,7.02369
78.75,7.32017
78.8,4.06448
78.85,2.96444
78.9,3.50438
78.95,3.80608
79,3.25382
79.05,1.26509
79.1,0.5952
79.15,0.4604
79.2,0.38162
79.25,0.45854
79.3,0.33756
79.35,0.26474
79.4,0.3144
79.45,0.27072
79.5,0.24533
79.55,0.25914
79.6,0.33457
79.65,0.22964
79.7,0.23898
79.75,0.16168
79.8,0.36295
79.85,0.23375
79.9,0.29237
79.95,0.22815
80,0.21097