File: Data_XRD/LiF.csv
5.02,394.667
5.08,402.8
5.14,401.133
5.2,385.433
5.26,391.667
5.32,371.033
5.38,371.133
5.44,393.867
5.5,389.1
5.56,395.533
5.62,372.767
5.68,384.733
5.74,386.6
5.8,397.967
5.86,371.967
5.92,375.967
5.98,390.1
6.04,378.167
6.1,382.9
6.16,355.5
6.22,374.3
6.28,388.067
6.34,374.867
6.4,383.467
6.46,380.467
6.52,382.233
6.58,381.667
6.64,398
6.7,369.8
6.76,390.067
6.82,371.033
6.88,364.4
6.94,399.633
7,385.167
7.06,358.833
7.12,379.633
7.18,359.6
7.24,379.2
7.3,373.067
7.36,382.8
7.42,363.133
7.48,358.433
7.54,369.8
7.6,385.133
7.66,357.7
7.72,363.8
7.78,362.467
7.84,363.133
7.9,378.5
7.96,386.233
8.02,368.1
8.08,368.133
8.14,383.933
8.2,373.567
8.26,363.3
8.32,371.9
8.38,371.6
8.44,371.9
8.5,364.533
8.56,377.333
8.62,356.967
8.68,344.467
8.74,351.767
8.8,355.233
8.86,356.533
8.92,354.233
8.98,371.133
9.04,337.033
9.1,352.667
9.16,355.2
9.22,350.433
9.28,353.867
9.34,340.6
9.4,358.8
9.46,343.333
9.52,341.933
9.58,345.467
9.64,358.433
9.7,341.133
9.76,346.733
9.82,332
9.88,335.867
9.94,346.067
10,350.667
10.06,329.233
10.12,335.1
10.18,330.9
10.24,328.933
10.3,328.867
10.36,346.867
10.42,343.233
10.48,317.4
10.54,319.033
10.6,334.733
10.66,330.233
10.72,308.067
10.78,330.9
10.84,316.433
10.9,318.333
10.96,324.367
11.02,327.767
11.08,318.833
11.14,313.633
11.2,313.133
11.26,303.733
11.32,309.8
11.38,316.9
11.44,297.967
11.5,307.1
11.56,314.9
11.62,300.733
11.68,302.2
11.74,297.533
11.8,290.733
11.86,291.267
11.92,293.167
11.98,301.1
12.04,310.8
12.1,303.833
12.16,312.4
12.22,283.367
12.28,286.6
12.34,282.7
12.4,300.967
12.46,278.033
12.52,282.667
12.58,283.067
12.64,301.867
12.7,293.933
12.76,304.667
12.82,285.767
12.88,284.533
12.94,287.8
13,308.2
13.06,274.767
13.12,290.1
13.18,293.933
13.24,294.5
13.3,277.133
13.36,284.967
13.42,280.833
13.48,288.3
13.54,287.133
13.6,297.8
13.66,283.5
13.72,279.833
13.78,284.6
13.84,270.3
13.9,285.4
13.96,267.933
14.02,300.2
14.08,264.567
14.14,277.5
14.2,273.267
14.26,244.733
14.32,272.033
14.38,266.233
14.44,268.333
14.5,274.933
14.56,274.7
14.62,256.033
14.68,275.633
14.74,278.467
14.8,256.7
14.86,262.2
14.92,259.9
14.98,276.967
15.04,265.833
15.1,278.667
15.16,260.667
15.22,274.4
15.28,267.767
15.34,270.4
15.4,264
15.46,245.433
15.52,279.6
15.58,258.4
15.64,250.867
15.7,256.9
15.76,248.333
15.82,272.6
15.88,278.9
15.94,258.5
16,262.833
16.06,262
16.12,265.5
16.18,264.933
16.24,257.667
16.3,263.767
16.36,268.567
16.42,253.8
16.48,267.967
16.54,251.733
16.6,266.967
16.66,262.6
16.72,257.067
16.78,269.467
16.84,250.833
16.9,255.333
16.96,261.7
17.02,263.733
17.08,257.567
17.14,266.467
17.2,247.367
17.26,260
17.32,250.7
17.38,266.1
17.44,245.633
17.5,243.167
17.56,247.7
17.62,250.167
17.68,239.8
17.74,242.333
17.8,248.967
17.86,257.567
17.92,234.867
17.98,253.8
18.04,242.533
18.1,262.067
18.16,245.233
18.22,239.033
18.28,254.033
18.34,230.933
18.4,241.867
18.46,256.167
18.52,243.967
18.58,231.967
18.64,252.533
18.7,242.267
18.76,239.733
18.82,247.7
18.88,252.2
18.94,252.767
19,249.733
19.06,242.8
19.12,246.767
19.18,240.3
19.24,250.567
19.3,232.7
19.36,257.1
19.42,228.867
19.48,249.9
19.54,226.133
19.6,237.967
19.66,234.933
19.72,226.433
19.78,236.867
19.84,243.2
19.9,224.3
19.96,241.5
20.02,236.033
20.08,226.367
20.14,239.033
20.2,247.9
20.26,235.667
20.32,225.833
20.38,230.633
20.44,215.733
20.5,250.033
20.56,255.967
20.62,242.733
20.68,237.8
20.74,229.9
20.8,232.033
20.86,231.9
20.92,213.267
20.98,218.7
21.04,235.633
21.1,230.3
21.16,225.433
21.22,221.267
21.28,240.833
21.34,214.033
21.4,231.433
21.46,217.4
21.52,219.4
21.58,217.6
21.64,227.8
21.7,226.067
21.76,206.933
21.82,208.067
21.88,233.333
21.94,223.2
22,215.3
22.06,213.467
22.12,219
22.18,233.167
22.24,222.667
22.3,218.133
22.36,210.867
22.42,220.3
22.48,220
22.54,212.3
22.6,218.567
22.66,215.333
22.72,212.633
22.78,216.6
22.84,222.433
22.9,206.4
22.96,213.833
23.02,206.8
23.08,202.933
23.14,213.567
23.2,223.7
23.26,222.2
23.32,215.9
23.38,210
23.44,208.867
23.5,206.267
23.56,196.1
23.62,193.867
23.68,195.8
23.74,213.533
23.8,202.833
23.86,205.467
23.92,210.733
23.98,201.433
24.04,198
24.1,199.933
24.16,201.4
24.22,198.9
24.28,190.7
24.34,203.667
24.4,202
24.46,194.633
24.52,195.033
24.58,198.167
24.64,200.433
24.7,198
24.76,193.9
24.82,181.833
24.88,207.033
24.94,195.1
25,185.833
25.06,200.233
25.12,186.767
25.18,200.2
25.24,206.467
25.3,182.467
25.36,199.533
25.42,179.6
25.48,189.967
25.54,187.533
25.6,176
25.66,188.133
25.72,200.5
25.78,176.8
25.84,183.1
25.9,182.567
25.96,186.267
26.02,174.467
26.08,194.3
26.14,175.767
26.2,187.7
26.26,195.733
26.32,183.6
26.38,165.8
26.44,184.433
26.5,165.833
26.56,168.133
26.62,168.667
26.68,172.8
26.74,184.333
26.8,190.5
26.86,180.5
26.92,172.133
26.98,171.7
27.04,182.067
27.1,164.633
27.16,173.2
27.22,171.933
27.28,175.733
27.34,171.567
27.4,171.533
27.46,157.733
27.52,166.6
27.58,169.567
27.64,179.767
27.7,182.467
27.76,158.6
27.82,174.633
27.88,168.633
27.94,159.833
28,171.867
28.06,156.733
28.12,154.9
28.18,167.1
28.24,168.8
28.3,175.2
28.36,154.133
28.42,157.467
28.48,167.367
28.54,168.867
28.6,180.767
28.66,176.8
28.72,167.333
28.78,164.167
28.84,161.767
28.9,159.767
28.96,159.933
29.02,153.9
29.08,159.633
29.14,158.667
29.2,164.3
29.26,157.4
29.32,161.567
29.38,155.567
29.44,167.5
29.5,149.933
29.56,146.9
29.62,141.933
29.68,150.133
29.74,156.567
29.8,158.7
29.86,153.567
29.92,159.3
29.98,159.033
30.04,159.333
30.1,158.633
30.16,145.333
30.22,154.167
30.28,148.233
30.34,159.633
30.4,155.1
30.46,156.533
30.52,152.133
30.58,148.833
30.64,152.367
30.7,149.833
30.76,145.1
30.82,153.267
30.88,184.7
30.94,154.7
31,148.167
31.06,139.767
31.12,139.967
31.18,154.667
31.24,159.4
31.3,148.667
31.36,145.1
31.42,154
31.48,154.967
31.54,151.4
31.6,155.867
31.66,155.067
31.72,153.333
31.78,145.167
31.84,152.433
31.9,153.167
31.96,157.3
32.02,153.967
32.08,154.567
32.14,160.267
32.2,153.367
32.26,145.233
32.32,158.233
32.38,147
32.44,145.967
32.5,159.433
32.56,141.7
32.62,135.767
32.68,145.3
32.74,145.3
32.8,143.367
32.86,143.067
32.92,144.467
32.98,153.067
33.04,142.933
33.1,144.1
33.16,134.567
33.22,158.167
33.28,143.933
33.34,140.1
33.4,155.233
33.46,157.033
33.52,138.333
33.58,146.967
33.64,140.667
33.7,140.567
33.76,140.767
33.82,135.667
33.88,146.433
33.94,147.2
34,143.633
34.06,144.6
34.12,155.033
34.18,140.1
34.24,140.167
34.3,139.567
34.36,146.733
34.42,140.9
34.48,140.233
34.54,156.6
34.6,154.567
34.66,152.8
34.72,155
34.78,166.567
34.84,171.7
34.9,154.733
34.96,143.767
35.02,147.767
35.08,134.3
35.14,144.633
35.2,145.367
35.26,144.867
35.32,152.667
35.38,144.4
35.44,134.3
35.5,139.367
35.56,148.033
35.62,150.967
35.68,143.533
35.74,141.833
35.8,128.567
35.86,132.367
35.92,148.767
35.98,143.2
36.04,141.5
36.1,144.867
36.16,132.4
36.22,138.233
36.28,132.5
36.34,126.667
36.4,143.567
36.46,139.867
36.52,139.3
36.58,139.5
36.64,125.5
36.7,129.433
36.76,125.867
36.82,135.133
36.88,132.2
36.94,131.767
37,141.6
37.06,136.667
37.12,126.133
37.18,149.3
37.24,148.633
37.3,161.933
37.36,169
37.42,172.8
37.48,173.733
37.54,169.733
37.6,158.267
37.66,168.2
37.72,172.333
37.78,158.7
37.84,161.833
37.9,157.067
37.96,178.2
38.02,180.167
38.08,178.8
38.14,177.133
38.2,180.167
38.26,210.067
38.32,271.9
38.38,415.2
38.44,938.367
38.5,2181.5
38.56,3703.9
38.62,5970.43
38.68,8011.57
38.74,4893.8
38.8,3207.5
38.86,675.533
38.92,321.567
38.98,237.067
39.04,198.267
39.1,188.867
39.16,197.1
39.22,178.367
39.28,169.633
39.34,144.133
39.4,158.233
39.46,148.933
39.52,147.433
39.58,150.967
39.64,142.2
39.7,159.167
39.76,135.833
39.82,145.367
39.88,150.567
39.94,154.2
40,144.167
40.06,147.1
40.12,137.633
40.18,141.767
40.24,154.2
40.3,148
40.36,167.967
40.42,162.867
40.48,144.233
40.54,125.2
40.6,135.933
40.66,147.167
40.72,144.2
40.78,127
40.84,139.233
40.9,131.567
40.96,133.3
41.02,137.333
41.08,134.233
41.14,135.8
41.2,129.167
41.26,131.133
41.32,131.967
41.38,123.6
41.44,133.233
41.5,119.533
41.56,132.7
41.62,125.833
41.68,130.433
41.74,128.667
41.8,117.2
41.86,139.833
41.92,122.4
41.98,130.567
42.04,125.867
42.1,132.467
42.16,127.867
42.22,136.8
42.28,124.633
42.34,130.567
42.4,133.8
42.46,134.333
42.52,129.5
42.58,115.767
42.64,131.9
42.7,122.867
42.76,123.733
42.82,129.3
42.88,145.733
42.94,134.333
43,121.2
43.06,119.067
43.12,119.333
43.18,117.233
43.24,133.433
43.3,147.867
43.36,145.933
43.42,150.9
43.48,147.967
43.54,147.733
43.6,152.633
43.66,142.933
43.72,147.233
43.78,148
43.84,154.667
43.9,149.267
43.96,145.667
44.02,154.333
44.08,149.733
44.14,147.3
44.2,160.733
44.26,157.533
44.32,164.933
44.38,173.067
44.44,176.367
44.5,196.167
44.56,225.133
44.62,289.733
44.68,492.233
44.74,1196.93
44.8,2755.3
44.86,4630.77
44.92,7256.9
44.98,8965.9
45.04,4699.4
45.1,3705.67
45.16,1068.17
45.22,365.5
45.28,249.467
45.34,197.2
45.4,195.467
45.46,183.1
45.52,169.667
45.58,151.867
45.64,151.933
45.7,133.367
45.76,140.9
45.82,146.967
45.88,129.867
45.94,133.6
46,134.867
46.06,134.567
46.12,127.6
46.18,131.333
46.24,127.4
46.3,127.467
46.36,124.067
46.42,122.2
46.48,119.433
46.54,123.967
46.6,123.967
46.66,119.133
46.72,113.133
46.78,119.667
46.84,116.6
46.9,118.533
46.96,119
47.02,116.267
47.08,115.967
47.14,119.933
47.2,114.133
47.26,118.867
47.32,122.933
47.38,110.1
47.44,104.7
47.5,118.467
47.56,119.7
47.62,114.433
47.68,107.833
47.74,116.867
47.8,108.667
47.86,121.833
47.92,114.6
47.98,112.667
48.04,104.133
48.1,107.733
48.16,113.567
48.22,108.2
48.28,102.8
48.34,103.133
48.4,106.767
48.46,103.633
48.52,112.333
48.58,110.433
48.64,107.733
48.7,100.833
48.76,109.133
48.82,107.4
48.88,104
48.94,100.433
49,99.7
49.06,114.8
49.12,110.833
49.18,106.333
49.24,106.733
49.3,96
49.36,98.93333
49.42,103.7
49.48,92.73333
49.54,95.9
49.6,105.167
49.66,103.3
49.72,93.26667
49.78,97.73333
49.84,100.633
49.9,104.5
49.96,98.66667
50.02,104.667
50.08,104.667
50.14,95.3
50.2,96.96667
50.26,95.7
50.32,101.333
50.38,92
50.44,101.5
50.5,100.4
50.56,108.667
50.62,91.53333
50.68,86.73333
50.74,90.76667
50.8,90.73333
50.86,94.03333
50.92,87.03333
50.98,97.83333
51.04,97.46667
51.1,91.5
51.16,96.33333
51.22,90.8
51.28,103.467
51.34,93.1
51.4,84.96667
51.46,92.2
51.52,100.9
51.58,91.33333
51.64,90.96667
51.7,86.66667
51.76,89.33333
51.82,96.6
51.88,93.33333
51.94,78.8
52,80.66667
52.06,88.9
52.12,91.76667
52.18,90.06667
52.24,93.43333
52.3,91.5
52.36,85.6
52.42,89.93333
52.48,86.36667
52.54,92.33333
52.6,90.7
52.66,92.73333
52.72,91.66667
52.78,76.56667
52.84,85.93333
52.9,89.96667
52.96,86.5
53.02,80.16667
53.08,76.3
53.14,88.43333
53.2,92.2
53.26,85.36667
53.32,85.23333
53.38,93.3
53.44,79.36667
53.5,85.56667
53.56,88.96667
53.62,91.46667
53.68,89.93333
53.74,97.66667
53.8,91.8
53.86,82
53.92,82.1
53.98,85.76667
54.04,84.26667
54.1,85.5
54.16,85.76667
54.22,91.76667
54.28,100.867
54.34,84.3
54.4,82.76667
54.46,93.6
54.52,90.53333
54.58,83.16667
54.64,86.1
54.7,82.53333
54.76,79.43333
54.82,87.33333
54.88,76.36667
54.94,81.7
55,88.53333
55.06,82
55.12,79.7
55.18,88.23333
55.24,79.3
55.3,85.2
55.36,83.66667
55.42,88.8
55.48,78.7
55.54,80.3
55.6,82.06667
55.66,83.53333
55.72,80.3
55.78,89.8
55.84,81.33333
55.9,86.86667
55.96,87.26667
56.02,80.66667
56.08,83.9
56.14,89.76667
56.2,88.63333
56.26,80.7
56.32,83.4
56.38,81.63333
56.44,84.06667
56.5,83.6
56.56,81.5
56.62,86.53333
56.68,78.86667
56.74,83.13333
56.8,82.86667
56.86,79.5
56.92,85.1
56.98,84.4
57.04,86.06667
57.1,72.7
57.16,81.66667
57.22,80.56667
57.28,79.03333
57.34,80.96667
57.4,76.7
57.46,86.96667
57.52,77.46667
57.58,80.9
57.64,85.26667
57.7,78.86667
57.76,80.93333
57.82,86.86667
57.88,87.23333
57.94,82.33333
58,86.03333
58.06,93.1
58.12,80.16667
58.18,71.86667
58.24,92.7
58.3,73.83333
58.36,86.9
58.42,83.23333
58.48,89.43333
58.54,92
58.6,79.86667
58.66,79.53333
58.72,91.8
58.78,78.03333
58.84,89.06667
58.9,91.53333
58.96,80
59.02,74.4
59.08,76.86667
59.14,75.13333
59.2,74.6
59.26,84.83333
59.32,81
59.38,73.8
59.44,76.46667
59.5,81.3
59.56,76.43333
59.62,71.56667
59.68,75.73333
59.74,72.7
59.8,78.6
59.86,76.4
59.92,82.56667
59.98,77.76667
60.04,81.26667
60.1,79.03333
60.16,75.76667
60.22,83.5
60.28,77.33333
60.34,75.9
60.4,75.83333
60.46,80.83333
60.52,76.83333
60.58,80.93333
60.64,75.36667
60.7,76.1
60.76,76.43333
60.82,80.46667
60.88,80.6
60.94,79.53333
61,70.53333
61.06,78.8
61.12,78.9
61.18,81.46667
61.24,77.66667
61.3,75.86667
61.36,70.8
61.42,76.46667
61.48,70.7
61.54,76.33333
61.6,74.66667
61.66,78.23333
61.72,82.13333
61.78,79.53333
61.84,82.33333
61.9,72.16667
61.96,76.63333
62.02,86.36667
62.08,84.4
62.14,75.66667
62.2,78.66667
62.26,66.93333
62.32,79.76667
62.38,72.26667
62.44,83.63333
62.5,71.56667
62.56,78.6
62.62,72.93333
62.68,81.53333
62.74,78.63333
62.8,76.13333
62.86,80.23333
62.92,82.96667
62.98,77.93333
63.04,73.06667
63.1,79.03333
63.16,87.96667
63.22,84.6
63.28,78.33333
63.34,85.63333
63.4,83.73333
63.46,82.76667
63.52,97.66667
63.58,89.23333
63.64,81.43333
63.7,86.16667
63.76,82.23333
63.82,82.5
63.88,86.83333
63.94,83.26667
64,90.1
64.06,90.5
64.12,82.16667
64.18,92.93333
64.24,72.96667
64.3,91.1
64.36,77.8
64.42,80.26667
64.48,83.8
64.54,82.96667
64.6,83.93333
64.66,86.7
64.72,96.8
64.78,94.53333
64.84,90.93333
64.9,93.6
64.96,102.2
65.02,114.1
65.08,133.233
65.14,154.433
65.2,206
65.26,367.367
65.32,1009.47
65.38,1748.27
65.44,2499.6
65.5,3137.3
65.56,1720.5
65.62,1387.8
65.68,1467.67
65.74,608.233
65.8,203.1
65.86,139.8
65.92,120.833
65.98,110.2
66.04,100.167
66.1,85.7
66.16,90.13333
66.22,93
66.28,98.8
66.34,79.9
66.4,85.26667
66.46,91.7
66.52,88.26667
66.58,80.5
66.64,75.36667
66.7,87.06667
66.76,74.33333
66.82,85.13333
66.88,87.63333
66.94,79.06667
67,74.23333
67.06,79.36667
67.12,86.8
67.18,77.83333
67.24,70.9
67.3,77.13333
67.36,77.3
67.42,73
67.48,71.03333
67.54,72.63333
67.6,66.5
67.66,76
67.72,69.33333
67.78,71.96667
67.84,72.83333
67.9,68.86667
67.96,79.66667
68.02,68.7
68.08,78.2
68.14,73.56667
68.2,70.73333
68.26,70.6
68.32,70.96667
68.38,74
68.44,80.1
68.5,72.86667
68.56,64.56667
68.62,69.3
68.68,74.1
68.74,69.3
68.8,62.33333
68.86,64.73333
68.92,75.66667
68.98,75.16667
69.04,84.86667
69.1,70.53333
69.16,68.8
69.22,65.06667
69.28,68.6
69.34,68.03333
69.4,78.06667
69.46,66.63333
69.52,76.03333
69.58,76.7
69.64,73.16667
69.7,64.96667
69.76,74.63333
69.82,74.3
69.88,66.3
69.94,67
70,66.96667
70.06,69.4
70.12,67.53333
70.18,64.2
70.24,69.76667
70.3,70.96667
70.36,66.6
70.42,68.1
70.48,78.36667
70.54,68.6
70.6,66.96667
70.66,67.76667
70.72,66.7
70.78,73.73333
70.84,68.63333
70.9,67.03333
70.96,68.9
71.02,63.36667
71.08,66.66667
71.14,67.93333
71.2,68.53333
71.26,68.36667
71.32,76.4
71.38,69
71.44,64.66667
71.5,62.96667
71.56,71.06667
71.62,64.63333
71.68,63.1
71.74,68.23333
71.8,64.46667
71.86,67.96667
71.92,65
71.98,70.63333
72.04,59.63333
72.1,57.6
72.16,60.03333
72.22,74.23333
72.28,69.66667
72.34,72.13333
72.4,70.13333
72.46,68.06667
72.52,63.13333
72.58,62.4
72.64,61.36667
72.7,65.8
72.76,66.06667
72.82,64.33333
72.88,62.2
72.94,59.16667
73,66.03333
73.06,69.03333
73.12,61.66667
73.18,71.03333
73.24,64.2
73.3,62.86667
73.36,66.83333
73.42,69
73.48,76.33333
73.54,59
73.6,63.26667
73.66,78.86667
73.72,59.83333
73.78,64.83333
73.84,64
73.9,63.2
73.96,59.13333
74.02,63.73333
74.08,65.2
74.14,60.13333
74.2,64.66667
74.26,64.1
74.32,61
74.38,57.76667
74.44,63.06667
74.5,58.2
74.56,63.16667
74.62,68.03333
74.68,65.1
74.74,58.93333
74.8,66.23333
74.86,57.06667
74.92,73.06667
74.98,61.53333
75.04,67.13333
75.1,57.43333
75.16,60.8
75.22,60.83333
75.28,68.26667
75.34,61.4
75.4,70.76667
75.46,59.13333
75.52,62.33333
75.58,63.4
75.64,64.46667
75.7,66.33333
75.76,67.4
75.82,59.16667
75.88,59.4
75.94,63.1
76,62.9
76.06,63.13333
76.12,63.56667
76.18,57.4
76.24,64.33333
76.3,65.66667
76.36,61.8
76.42,65.4
76.48,62.1
76.54,57.83333
76.6,63.6
76.66,59.46667
76.72,68.16667
76.78,62.4
76.84,64
76.9,64.26667
76.96,61.26667
77.02,56.36667
77.08,64.8
77.14,66.73333
77.2,68.5
77.26,63.43333
77.32,65.5
77.38,63.86667
77.44,59.03333
77.5,61.2
77.56,61.33333
77.62,59.93333
77.68,66.56667
77.74,64.06667
77.8,61.33333
77.86,73
77.92,72
77.98,66.56667
78.04,67.7
78.1,57.8
78.16,61.36667
78.22,69.3
78.28,71.33333
78.34,73.9
78.4,84.33333
78.46,92.43333
78.52,143.533
78.58,304.667
78.64,484.567
78.7,665.967
78.76,648.8
78.82,335.533
78.88,330.267
78.94,382.667
79,329.433
79.06,132.633
79.12,102.767
79.18,73.5
79.24,77.5
79.3,69.1
79.36,64.36667
79.42,64.13333
79.48,65.26667
79.54,62.2
79.6,68.83333
79.66,65.96667
79.72,67.13333
79.78,61.2
79.84,56.66667
79.9,65.06667
79.96,61.5
80.02,60.33333
80.08,56.26667
80.14,58.46667
80.2,63.4
80.26,59.96667
80.32,62.86667
80.38,59.86667
80.44,68
80.5,55.83333
80.56,58.13333
80.62,63.9
80.68,57.96667
80.74,56.9
80.8,66.4
80.86,53.83333
80.92,63.46667
80.98,57.33333
81.04,61.7
81.1,61.43333
81.16,58.23333
81.22,58.13333
81.28,56.53333
81.34,66.6
81.4,59.13333
81.46,65.66667
81.52,64.33333
81.58,65.9
81.64,61.7
81.7,57.8
81.76,67.43333
81.82,50.73333
81.88,57.6
81.94,65.93333
82,67.96667
82.06,62.26667
82.12,58.63333
82.18,56.43333
82.24,57.03333
82.3,67.03333
82.36,62.76667
82.42,66.2
82.48,67.76667
82.54,72.63333
82.6,76.5
82.66,75.86667
82.72,90.33333
82.78,139.6
82.84,329.967
82.9,530.833
82.96,671.8
83.02,549.167
83.08,286.467
83.14,314.933
83.2,358.033
83.26,335.967
83.32,141.767
83.38,88.76667
83.44,71.36667
83.5,67.13333
83.56,69.7
83.62,55.8
83.68,66
83.74,57.8
83.8,64.83333
83.86,57.76667
83.92,64.7
83.98,62.8
84.04,56.23333
84.1,58.26667
84.16,53.3
84.22,63.6
84.28,55.33333
84.34,54.23333
84.4,57.13333
84.46,54.2
84.52,62.96667
84.58,55.1
84.64,55.23333
84.7,54.06667
84.76,57.33333
84.82,53.7
84.88,53.96667
84.94,60.53333
85,53.23333
85.06,61.33333
85.12,56.7
85.18,61.63333
85.24,52.96667
85.3,55.4
85.36,56.33333
85.42,53.36667
85.48,55.83333
85.54,57.96667
85.6,61.13333
85.66,60.56667
85.72,45.96667
85.78,53.33333
85.84,50.93333
85.9,58.83333
85.96,53.83333
86.02,53.2
86.08,51.33333
86.14,54.6
86.2,63.23333
86.26,52.03333
86.32,53.33333
86.38,53.9
86.44,60.5
86.5,54.06667
86.56,54.3
86.62,53.86667
86.68,54.7
86.74,54.63333
86.8,52.56667
86.86,60.26667
86.92,56.93333
86.98,55.43333
87.04,52.4
87.1,52.83333
87.16,55.4
87.22,53.23333
87.28,55
87.34,59.66667
87.4,58
87.46,55.73333
87.52,50.13333
87.58,50.63333
87.64,58.3
87.7,59.56667
87.76,52.63333
87.82,54.13333
87.88,48.8
87.94,57.33333
88,58.66667
88.06,53.8
88.12,45.8
88.18,48.73333
88.24,55.03333
88.3,51.63333
88.36,52.9
88.42,54.46667
88.48,57.56667
88.54,50.4
88.6,52.53333
88.66,57.4
88.72,52.13333
88.78,54.43333
88.84,51.53333
88.9,53.53333
88.96,52.66667
89.02,54.83333
89.08,51.83333
89.14,52.06667
89.2,50.43333
89.26,50.9
89.32,53.06667
89.38,56.16667
89.44,50.06667
89.5,51.1
89.56,56.56667
89.62,54.33333
89.68,48.1
89.74,52.56667
89.8,54.06667
89.86,38.96667
89.92,49.96667
89.98,49.66667
89.99,49.66667