File: Data_XRD/XRD4.csv
6.00925,51317.7
6.06476,19908.2
6.12027,12973.9
6.17577,6486.42
6.23128,30984.4
6.28679,27201.9
6.34229,66304.1
6.3978,-4518.03
6.45331,40926.2
6.50881,50843.2
6.56432,27571.1
6.61983,46955.1
6.67533,48943.9
6.73084,14337.4
6.78635,59604.9
6.84186,31573.2
6.89736,32668.4
6.95287,35111
7.00838,60160.3
7.06388,78736.1
7.11939,63647.5
7.1749,78479.9
7.2304,23840.4
7.28591,34916.7
7.34142,38919.2
7.39692,20178.8
7.45243,42633.3
7.50794,71489.8
7.56345,58939.2
7.61895,44986.1
7.67446,73411.4
7.72997,48003.9
7.78547,25133.4
7.84098,54729.6
7.89649,64775.5
7.95199,20865.3
8.0075,51778.6
8.06301,39602.1
8.11851,44943.5
8.17402,23005.9
8.22953,40115.8
8.28504,57742.5
8.34054,19327.9
8.39605,58173.4
8.45156,67285.5
8.50706,39269.8
8.56257,50844.4
8.61808,7414.56
8.67358,35074.3
8.72909,72185.6
8.7846,48073.7
8.84011,67658
8.89561,68779.3
8.95112,57041.9
9.00663,38333.4
9.06213,90131.3
9.11764,42362.3
9.17315,38794.4
9.22865,33281.6
9.28416,24475.7
9.33967,53238.7
9.39517,21940.9
9.45068,36677
9.50619,66502.1
9.5617,67389.3
9.6172,97222.9
9.67271,86591.9
9.72822,123485
9.78372,91972.8
9.83923,71244.2
9.89474,107895
9.95024,99412.8
10.0058,123269
10.0613,181834
10.1168,189122
10.1723,159790
10.2278,205535
10.2833,193079
10.3388,224639
10.3943,199451
10.4498,194115
10.5053,234831
10.5608,245729
10.6163,226199
10.6718,231893
10.7273,233611
10.7828,206313
10.8384,236049
10.8939,248092
10.9494,216785
11.0049,214586
11.0604,173464
11.1159,185969
11.1714,159169
11.2269,160894
11.2824,141331
11.3379,122712
11.3934,121415
11.4489,72157.7
11.5044,100195
11.5599,115835
11.6155,82313.7
11.671,86825.5
11.7265,64380.4
11.782,65821.6
11.8375,84881.5
11.893,21424.2
11.9485,33142.2
12.004,40111.7
12.0595,49971.4
12.115,33026
12.1705,35747.7
12.226,24668.3
12.2815,74062.7
12.337,67917.3
12.3925,78453.1
12.4481,39251.5
12.5036,41244.3
12.5591,64508.5
12.6146,27084.3
12.6701,50951.1
12.7256,-5167.21
12.7811,38852.1
12.8366,52538
12.8921,38018.8
12.9476,68862.1
13.0031,42216.9
13.0586,91185.9
13.1141,64229.6
13.1696,75247.9
13.2252,42450.6
13.2807,41955.5
13.3362,33228.6
13.3917,78933.8
13.4472,50358.8
13.5027,44979.1
13.5582,54978.6
13.6137,102499
13.6692,50357.9
13.7247,35756.2
13.7802,52987.5
13.8357,60925.2
13.8912,69122.2
13.9467,81039.7
14.0023,54967
14.0578,71512.7
14.1133,72837.3
14.1688,81794.1
14.2243,40808.6
14.2798,51731.8
14.3353,49120.4
14.3908,39142.3
14.4463,71975.8
14.5018,45892.1
14.5573,79313.2
14.6128,53698.4
14.6683,51659.4
14.7238,66610.2
14.7793,76591.4
14.8349,51023.6
14.8904,34991.9
14.9459,31507.9
15.0014,62341.9
15.0569,74757.2
15.1124,74737.2
15.1679,47481.4
15.2234,87579.9
15.2789,40202.9
15.3344,50800.9
15.3899,53297
15.4454,25507.8
15.5009,-4292.6
15.5564,50588.9
15.612,85846.6
15.6675,35900.6
15.723,25721.5
15.7785,43322.1
15.834,76380.2
15.8895,59325.8
15.945,29709.6
16.0005,12767.4
16.056,22786.1
16.1115,61471.5
16.167,34606.6
16.2225,27186
16.278,82895.7
16.3335,25044.2
16.389,61695.2
16.4446,27767
16.5001,66467.7
16.5556,21863.9
16.6111,73040
16.6666,33995.7
16.7221,69921.3
16.7776,73109.5
16.8331,75908.3
16.8886,40313.9
16.9441,46788.3
16.9996,46719.6
17.0551,-3405.72
17.1106,79101.3
17.1661,43071.2
17.2217,70144.1
17.2772,57165.9
17.3327,34822.6
17.3882,22985.6
17.4437,55305.2
17.4992,37377.7
17.5547,-8335.24
17.6102,18492.2
17.6657,45027.1
17.7212,34998
17.7767,44894.3
17.8322,-1662.46
17.8877,64547.4
17.9432,2726.04
17.9987,30422.3
18.0543,38365
18.1098,27152
18.1653,13052.5
18.2208,32875.5
18.2763,41452.3
18.3318,86754.3
18.3873,61203.5
18.4428,103467
18.4983,116789
18.5538,87151.5
18.6093,70962.8
18.6648,100185
18.7203,117746
18.7758,118593
18.8314,150885
18.8869,137598
18.9424,140682
18.9979,200838
19.0534,208784
19.1089,231317
19.1644,260801
19.2199,268578
19.2754,329677
19.3309,313466
19.3864,324639
19.4419,379275
19.4974,350585
19.5529,361472
19.6085,404184
19.664,402950
19.7195,406529
19.775,413209
19.8305,393006
19.886,399269
19.9415,407089
19.997,380678
20.0525,375142
20.108,429470
20.1635,405818
20.219,327837
20.2745,340006
20.33,314408
20.3855,308241
20.4411,286388
20.4966,285690
20.5521,281917
20.6076,217165
20.6631,188303
20.7186,158289
20.7741,185864
20.8296,153572
20.8851,141645
20.9406,162043
20.9961,106953
21.0516,96713.8
21.1071,98614.4
21.1626,69159.9
21.2182,66846.4
21.2737,57504.4
21.3292,24767.6
21.3847,41971.7
21.4402,11395.5
21.4957,51307.7
21.5512,-19443
21.6067,16058.2
21.6622,35112.5
21.7177,40495.2
21.7732,10323.5
21.8287,33281.6
21.8842,49015.9
21.9397,-1906.9
21.9952,65652.3
22.0508,44849.9
22.1063,28111.6
22.1618,35949
22.2173,30635.5
22.2728,37442.4
22.3283,11574.6
22.3838,51421.7
22.4393,44957.3
22.4948,44109.9
22.5503,13064.1
22.6058,40814
22.6613,22875
22.7168,44814.9
22.7723,57188.5
22.8279,62875.3
22.8834,73406.3
22.9389,78815.3
22.9944,66937.5
23.0499,60406.7
23.1054,63867.7
23.1609,39570
23.2164,58022.3
23.2719,13552.7
23.3274,60771.7
23.3829,50908.2
23.4384,34424.9
23.4939,15808.3
23.5494,51383.3
23.605,88611.3
23.6605,55685.7
23.716,65579.8
23.7715,71239.2
23.827,16816
23.8825,54967
23.938,32982.5
23.9935,71577.3
24.049,33112.6
24.1045,68083.8
24.16,50997.7
24.2155,29996.9
24.271,50604.3
24.3265,75303.5
24.382,86197.2
24.4376,58473.9
24.4931,12474.2
24.5486,43839.2
24.6041,19084.9
24.6596,38901.1
24.7151,20111.1
24.7706,46428.7
24.8261,39309
24.8816,44852.1
24.9371,153.558
24.9926,19117.3
25.0481,31628.5
25.1036,39243.3
25.1591,44188
25.2147,42193.3
25.2702,34314.5
25.3257,38066.3
25.3812,26785.8
25.4367,21988.5
25.4922,13379.2
25.5477,18674.6
25.6032,60444.6
25.6587,40252.7
25.7142,39824.1
25.7697,43028.8
25.8252,55588.4
25.8807,53504.9
25.9362,48594.8
25.9917,16185.5
26.0473,56362.2
26.1028,53407.2
26.1583,48645.6
26.2138,37044.5
26.2693,29002.5
26.3248,10792.9
26.3803,50136.5
26.4358,52767.4
26.4913,43522.5
26.5468,35215.8
26.6023,61158.4
26.6578,33349.2
26.7133,25170.3
26.7688,28378
26.8244,57953.3
26.8799,52770.8
26.9354,94195.8
26.9909,35927.9
27.0464,48964.7
27.1019,40326.3
27.1574,24500.3
27.2129,26341
27.2684,22805.4
27.3239,55220.6
27.3794,50943.3
27.4349,46958.2
27.4904,5863.38
27.5459,24093
27.6015,51543.1
27.657,59788.5
27.7125,42006.3
27.768,42439
27.8235,27435.5
27.879,43201.9
27.9345,-4341.66
27.99,59968
28.0455,21143
28.101,47792.5
28.1565,26164.2
28.212,744.446
28.2675,56936.8
28.323,4289.21
28.3785,45351
28.4341,83449.2
28.4896,106833
28.5451,119966
28.6006,152312
28.6561,202570
28.7116,262755
28.7671,360331
28.8226,438044
28.8781,490798
28.9336,572089
28.9891,631056
29.0446,662464
29.1001,674853
29.1556,642927
29.2112,644684
29.2667,593783
29.3222,517643
29.3777,446114
29.4332,423450
29.4887,335598
29.5442,278981
29.5997,225676
29.6552,173398
29.7107,121710
29.7662,72907.8
29.8217,57514.9
29.8772,35631.4
29.9327,32587.8
29.9882,34468.3
30.0438,599.46
30.0993,15087
30.1548,12155.1
30.2103,17192.4
30.2658,65030.4
30.3213,16750
30.3768,11293.8
30.4323,39018.1
30.4878,6097.86
30.5433,18541.4
30.5988,21725.8
30.6543,6839.25
30.7098,28901.4
30.7653,60412.5
30.8209,44372.9
30.8764,42013.2
30.9319,28986.6
30.9874,69705.6
31.0429,21706.8
31.0984,50127
31.1539,47561.5
31.2094,38204.6
31.2649,4433.93
31.3204,57291.6
31.3759,32690.4
31.4314,13994.3
31.4869,63742.7
31.5424,44100.3
31.5979,77335.5
31.6535,22270.7
31.709,7417.48
31.7645,43606.5
31.82,53168.8
31.8755,16421.9
31.931,48526.4
31.9865,72832.3
32.042,29089.1
32.0975,50692.2
32.153,46951.5
32.2085,100522
32.264,73450.3
32.3195,83960.2
32.375,57716.2
32.4306,39377.5
32.4861,29609.5
32.5416,21610.9
32.5971,47392.9
32.6526,27408.7
32.7081,46356.2
32.7636,54077.6
32.8191,11208.1
32.8746,53490.5
32.9301,37879.7
32.9856,62627
33.0411,63569.6
33.0966,55499.7
33.1521,49757
33.2077,36943.9
33.2632,36348.2
33.3187,61521.7
33.3742,60763.1
33.4297,735.476
33.4852,59966.9
33.5407,1727.27
33.5962,55193
33.6517,53859.8
33.7072,43578.5
33.7627,53614.3
33.8182,33234.5
33.8737,22752
33.9292,57216.6
33.9847,86080.9
34.0403,66839.9
34.0958,87875.8
34.1513,49562.6
34.2068,43362.3
34.2623,16606.7
34.3178,48283.8
34.3733,69589.6
34.4288,60910.8
34.4843,46034.3
34.5398,53878.7
34.5953,54033.6
34.6508,53402.9
34.7063,60146.1
34.7618,49043.3
34.8174,61807.9
34.8729,43229.9
34.9284,42260.9
34.9839,54251.1
35.0394,31676.2
35.0949,27774.2
35.1504,76670.7
35.2059,16587.4
35.2614,53780.6
35.3169,67171.4
35.3724,72851.6
35.4279,58696.8
35.4834,48665.7
35.5389,45399.1
35.5944,50746.6
35.65,44221
35.7055,49322.6
35.761,25849.6
35.8165,64868.3
35.872,57294
35.9275,29342.1
35.983,49940.3
36.0385,44409.7
36.094,71464.6
36.1495,52567.4
36.205,63571.8
36.2605,92980.5
36.316,41936.3
36.3715,67506.7
36.4271,47039.3
36.4826,15775.1
36.5381,42195.5
36.5936,54525.6
36.6491,46353.4
36.7046,-8342.69
36.7601,46827.5
36.8156,41421.3
36.8711,49457.1
36.9266,44452.6
36.9821,21229.2
37.0376,66771.3
37.0931,38671.8
37.1486,92820.6
37.2042,65395.1
37.2597,62772
37.3152,53655.7
37.3707,39951.6
37.4262,18449.4
37.4817,35158.5
37.5372,37667.1
37.5927,60328.7
37.6482,56465.7
37.7037,16818
37.7592,38244.2
37.8147,69657.5
37.8702,7263.52
37.9257,48231.5
37.9812,30943.9
38.0368,67560.7
38.0923,15257.5
38.1478,101986
38.2033,245316
38.2588,503096
38.3143,854204
38.3698,1.04068e+06
38.4253,909130
38.4808,540698
38.5363,236876
38.5918,134216
38.6473,38524.4
38.7028,36164.8
38.7583,74425.2
38.8139,57519
38.8694,-4331.14
38.9249,58459.3
38.9804,27454.9
39.0359,38671.2
39.0914,63594.2
39.1469,44471
39.2024,9745.69
39.2579,31154.9
39.3134,18779.5
39.3689,48474.8
39.4244,19339.9
39.4799,31121.4
39.5354,96087.4
39.5909,54706.9
39.6465,50852.2
39.702,68456.6
39.7575,81794.3
39.813,73198.6
39.8685,26604.8
39.924,19531.8
39.9795,56853.7
40.035,58158
40.0905,56235.6
40.146,62215.9
40.2015,63116.4
40.257,65672.4
40.3125,98833.1
40.368,55785.8
40.4236,78466.7
40.4791,16356.5
40.5346,54305.6
40.5901,82518.9
40.6456,62436.2
40.7011,80059.8
40.7566,72591.9
40.8121,66016.8
40.8676,65518.5
40.9231,37326.2
40.9786,77653.9
41.0341,47119.8
41.0896,46449.6
41.1451,48082.2
41.2007,64742.3
41.2562,45694.4
41.3117,65356.6
41.3672,87479.7
41.4227,50458.1
41.4782,35951
41.5337,36658.9
41.5892,70836.6
41.6447,45917.4
41.7002,29594.2
41.7557,35467.9
41.8112,68743.8
41.8667,69072
41.9222,63554.8
41.9777,60819.4
42.0333,67616.2
42.0888,65236.4
42.1443,62364.4
42.1998,31710.7
42.2553,46728.4
42.3108,64429.3
42.3663,61747.6
42.4218,44785.5
42.4773,38628.9
42.5328,54653.8
42.5883,42578.1
42.6438,72340.4
42.6993,56820.7
42.7548,24389.3
42.8104,54371.6
42.8659,68744.8
42.9214,58476.3
42.9769,25915.8
43.0324,55222.1
43.0879,81667.6
43.1434,90488.6
43.1989,45716.4
43.2544,64889.1
43.3099,48896.7
43.3654,90249.6
43.4209,54139.4
43.4764,79569.6
43.5319,71501.8
43.5874,63953.5
43.643,49016
43.6985,97000.9
43.754,32774.9
43.8095,70524.6
43.865,70589.9
43.9205,21130.5
43.976,48127.4
44.0315,57586.8
44.087,82736.5
44.1425,24920.1
44.198,66270.8
44.2535,44913.4
44.309,23068.2
44.3645,69425.7
44.4201,43254.4
44.4756,55361.1
44.5311,64443
44.5866,41514.8
44.6421,32787.6
44.6976,70335.2
44.7531,51153.1
44.8086,32891.5
44.8641,35194.2
44.9196,63665.2
44.9751,96895.5
45.0306,38650.7
45.0861,21540.8
45.1416,57380
45.1971,41535.6
45.2527,49599.4
45.3082,58862.3
45.3637,64918.7
45.4192,52398.9
45.4747,51789.7
45.5302,42167.9
45.5857,36808.2
45.6412,61217.7
45.6967,916.879
45.7522,8275.03
45.8077,93973.5
45.8632,37336.5
45.9187,57147
45.9742,43991.7
46.0298,49006.3
46.0853,15321.2
46.1408,30495
46.1963,47087.2
46.2518,7563.54
46.3073,41600.8
46.3628,31307
46.4183,-2385.28
46.4738,33535.8
46.5293,20194.5
46.5848,31502.7
46.6403,58171.7
46.6958,11527
46.7513,72241.9
46.8069,72710
46.8624,67411.3
46.9179,70456.8
46.9734,85158.9
47.0289,189258
47.0844,255014
47.1399,253101
47.1954,351259
47.2509,445147
47.3064,552222
47.3619,582655
47.4174,715360
47.4729,804596
47.5284,834822
47.5839,868389
47.6395,922677
47.695,870543
47.7505,834832
47.806,768308
47.8615,632116
47.917,546937
47.9725,495176
48.028,378330
48.0835,291643
48.139,240986
48.1945,173827
48.25,111021
48.3055,104241
48.361,69738.4
48.4166,95167.4
48.4721,57618.1
48.5276,61419.9
48.5831,64350.6
48.6386,57950.1
48.6941,59173.3
48.7496,42298
48.8051,51329.7
48.8606,22916
48.9161,39959.7
48.9716,19212.2
49.0271,12031.5
49.0826,54126.1
49.1381,13895
49.1936,32495.4
49.2492,20482.2
49.3047,26021.8
49.3602,35288.3
49.4157,75907
49.4712,22859
49.5267,29861
49.5822,49256.3
49.6377,48742.1
49.6932,8274.68
49.7487,37789.6
49.8042,62652.2
49.8597,53135.8
49.9152,44409.8
49.9707,50558.9
50.0263,45582.1
50.0818,39431.3
50.1373,57308.5
50.1928,35810.9
50.2483,54677.9
50.3038,66263.7
50.3593,80521.7
50.4148,59145.8
50.4703,42943.7
50.5258,35756.8
50.5813,63997.1
50.6368,26728.4
50.6923,62119.6
50.7478,56816.3
50.8034,47458.9
50.8589,77958.7
50.9144,22150.2
50.9699,24209.3
51.0254,54852
51.0809,80443.6
51.1364,84558.1
51.1919,38885.5
51.2474,22463.2
51.3029,81920.5
51.3584,78778.8
51.4139,42804
51.4694,88321.8
51.5249,43254.4
51.5804,50092.3
51.636,23306.6
51.6915,61625.1
51.747,19006.6
51.8025,30536.7
51.858,49706.4
51.9135,83181.2
51.969,13748.5
52.0245,-6885.1
52.08,45534.6
52.1355,64924
52.191,52649.6
52.2465,30030.6
52.302,70952.7
52.3575,77.1783
52.4131,80528.3
52.4686,70672
52.5241,11758.3
52.5796,31321.7
52.6351,33308.6
52.6906,70394.5
52.7461,80007.1
52.8016,66877.7
52.8571,84077.9
52.9126,53661.5
52.9681,54788.7
53.0236,46412.3
53.0791,40923.9
53.1346,56884.5
53.1901,63370.6
53.2457,51494.9
53.3012,36231.4
53.3567,22459.4
53.4122,41040.4
53.4677,16640.5
53.5232,45447.9
53.5787,39237.6
53.6342,56976.1
53.6897,101113
53.7452,49617.3
53.8007,60099.4
53.8562,40443.6
53.9117,73052.8
53.9672,3261.13
54.0228,47309.5
54.0783,55687.9
54.1338,47233.9
54.1893,37887.6
54.2448,45823.9
54.3003,53643.9
54.3558,45243.8
54.4113,63190.3
54.4668,60520.8
54.5223,24922.5
54.5778,71082.5
54.6333,65791.9
54.6888,40017.7
54.7443,58202.1
54.7998,76689.4
54.8554,46449.8
54.9109,44501.5
54.9664,20613.3
55.0219,62946.2
55.0774,43274.2
55.1329,75589.9
55.1884,20542.8
55.2439,33967.5
55.2994,12208.4
55.3549,70853.2
55.4104,47724
55.4659,59868.8
55.5214,73792.9
55.5769,46519.4
55.6325,85539.6
55.688,56871.1
55.7435,45507.5
55.799,55230.6
55.8545,58299.7
55.91,57677.3
55.9655,64239.3
56.021,61211.7
56.0765,37025.5
56.132,49684.2
56.1875,47686.8
56.243,47421.6
56.2985,36105.4
56.354,76880.2
56.4096,49606.5
56.4651,49093.5
56.5206,66672
56.5761,28639.1
56.6316,98164.9
56.6871,232581
56.7426,544370
56.7981,938545
56.8536,1.23532e+06
56.9091,1.22061e+06
56.9646,891803
57.0201,492354
57.0756,194418
57.1311,79686.7
57.1866,59121
57.2422,69501.2
57.2977,39017.4
57.3532,23010.7
57.4087,56852
57.4642,3792.1
57.5197,16975.8
57.5752,30417.6
57.6307,48077.6
57.6862,50333.4
57.7417,57127.3
57.7972,28880.1
57.8527,58563.9
57.9082,-6651.04
57.9637,37487.4
58.0193,2923.66
58.0748,47275.2
58.1303,58611.1
58.1858,54140.1
58.2413,40797.5
58.2968,9364.22
58.3523,44834.6
58.4078,34252.7
58.4633,47302.6
58.5188,-3063.52
58.5743,32544.9
58.6298,105383
58.6853,35141.2
58.7408,38418.2
58.7963,60852.3
58.8519,66093.9
58.9074,70570.8
58.9629,14590.8
59.0184,65550.1
59.0739,28240.9
59.1294,41122.4
59.1849,49615.6
59.2404,18727.3
59.2959,36463.3
59.3514,95207.3
59.4069,62978.7
59.4624,38705.7
59.5179,50721.1
59.5734,46095
59.629,57633.1
59.6845,36486.7
59.74,47466.6
59.7955,46908.2
59.851,33757.3
59.9065,76832.5
59.962,33941
60.0175,53707.6
60.073,80542.6
60.1285,44602.1
60.184,27735.6
60.2395,83988.6
60.295,59640.1
60.3505,32756.6
60.4061,32652.5
60.4616,85051.8
60.5171,44361.6
60.5726,66547.3
60.6281,25240.9
60.6836,40898.9
60.7391,68127.2
60.7946,41687
60.8501,63891.9
60.9056,34778
60.9611,71432.7
61.0166,53672.2
61.0721,10508.8
61.1276,47791.8
61.1831,46246.8
61.2387,73697.4
61.2942,69031.4
61.3497,83607.5
61.4052,98447.5
61.4607,41442.8
61.5162,84170.3
61.5717,67803.8
61.6272,48039.3
61.6827,70676.5
61.7382,39232
61.7937,44709.2
61.8492,11930.7
61.9047,28842.3
61.9602,69009.4
62.0158,92707.1
62.0713,61492.6
62.1268,80746.5
62.1823,27954.5
62.2378,61272
62.2933,51401.9
62.3488,26415.2
62.4043,69768.5
62.4598,61180.3
62.5153,56135.7
62.5708,60404
62.6263,41497.7
62.6818,56319.9
62.7373,20480.6
62.7928,55808.5
62.8484,32661.5
62.9039,68402.1
62.9594,70943.5
63.0149,42016.5
63.0704,63359.7
63.1259,66237
63.1814,31439.5
63.2369,33661.6
63.2924,6131.33
63.3479,71970.1
63.4034,55378.2
63.4589,37260.6
63.5144,62714.3
63.5699,83228.9
63.6255,30532.1
63.681,56490.1
63.7365,59176
63.792,60024.6
63.8475,23840
63.903,22051.2
63.9585,61387.8
64.014,74557.4
64.0695,31294.5
64.125,56333.4
64.1805,34045.4
64.236,7223.13
64.2915,33979.3
64.347,76668.2
64.4026,16970.8
64.4581,56832.1
64.5136,53272.4
64.5691,10735.1
64.6246,57890.2
64.6801,16437.4
64.7356,50938.4
64.7911,30455.5
64.8466,18087.3
64.9021,22042
64.9576,51420.3
65.0131,63204.7
65.0686,68637.2
65.1241,127799
65.1796,73630.6
65.2352,139681
65.2907,153182
65.3462,140446
65.4017,131049
65.4572,169756
65.5127,191545
65.5682,194755
65.6237,210393
65.6792,234910
65.7347,239513
65.7902,241996
65.8457,303915
65.9012,310140
65.9567,277304
66.0123,288060
66.0678,265967
66.1233,298607
66.1788,312213
66.2343,314866
66.2898,290466
66.3453,290245
66.4008,290849
66.4563,259767
66.5118,223038
66.5673,256219
66.6228,216246
66.6783,192459
66.7338,186010
66.7893,179607
66.8449,174578
66.9004,118853
66.9559,118058
67.0114,109749
67.0669,82091.1
67.1224,121301
67.1779,101311
67.2334,83165.8
67.2889,93757.7
67.3444,106437
67.3999,45456.2
67.4554,19176.4
67.5109,45103.2
67.5664,15599.5
67.622,50629.5
67.6775,39656.4
67.733,20618.9
67.7885,45575.1
67.844,45867.8
67.8995,56290.8
67.955,25453.1
68.0105,28564.4
68.066,58343.6
68.1215,47039.6
68.177,51105.4
68.2325,72205.2
68.288,87798
68.3435,38450.3
68.399,42636.1
68.4546,35169.3
68.5101,64552.2
68.5656,-8585.33
68.6211,65921.8
68.6766,48351.2
68.7321,63143
68.7876,40503.4
68.8431,77655.2
68.8986,74299.8
68.9541,59966
69.0096,72687.6
69.0651,35683.1
69.1206,48132
69.1761,66154.6
69.2317,66369.2
69.2872,62615.4
69.3427,34114
69.3982,56132.3
69.4537,65535.1
69.5092,48632
69.5647,23237
69.6202,55444.3
69.6757,55126.4
69.7312,62958.9
69.7867,60786.9
69.8422,48157.7
69.8977,49903.8
69.9532,62072.8
70.0088,53838.8
70.0643,22616.7
70.1198,76857.9
70.1753,44445.1
70.2308,87923.5
70.2863,46096.3
70.3418,34080.4
70.3973,28608.5
70.4528,52184.1
70.5083,48999.2
70.5638,37190.5
70.6193,64928.4
70.6748,51023.5
70.7303,44071
70.7858,48739.4
70.8414,10292.9
70.8969,68354.6
70.9524,41866.3
71.0079,37461.9
71.0634,321.01
71.1189,56253.8
71.1744,-883.754
71.2299,68328.1
71.2854,63823.9
71.3409,66288.9
71.3964,54397.5
71.4519,31725.2
71.5074,34007.5
71.5629,23491.1
71.6185,60847
71.674,41113.1
71.7295,84806.9
71.785,51601.5
71.8405,9614.98
71.896,18891.2
71.9515,61310.4
72.007,44956.3
72.0625,62589.7
72.118,29938.5
72.1735,44970.7
72.229,20423.2
72.2845,55399.5
72.34,48976.1
72.3955,20780.2
72.4511,52648.7
72.5066,30011.5
72.5621,32068.1
72.6176,33558.7
72.6731,19880.8
72.7286,54142.9
72.7841,40898.3
72.8396,39238.8
72.8951,19508.7
72.9506,28117.1
73.0061,11267.6
73.0616,57314.8
73.1171,57143.8
73.1726,41764.2
73.2282,39241.7
73.2837,66361.2
73.3392,48270
73.3947,28728.2
73.4502,6326.52
73.5057,60540.3
73.5612,8960
73.6167,50776.3
73.6722,46347.7
73.7277,11337.2
73.7832,60233.6
73.8387,32618.7
73.8942,61226.8
73.9497,19836.1
74.0053,88417.2
74.0608,60445.6
74.1163,80780.6
74.1718,9806.9
74.2273,48616.2
74.2828,78660.7
74.3383,32954.7
74.3938,67401.5
74.4493,72429.4
74.5048,51264.1
74.5603,47792.1
74.6158,73221.6
74.6713,42644.6
74.7268,35303.1
74.7823,46896.4
74.8379,54224.2
74.8934,19165
74.9489,71940.8
75.0044,85490.9
75.0599,161348
75.1154,255626
75.1709,458628
75.2264,632007
75.2819,841593
75.3374,935940
75.3929,1.01173e+06
75.4484,927339
75.5039,745813
75.5594,572796
75.615,345217
75.6705,236502
75.726,152825
75.7815,61453.9
75.837,33261.6
75.8925,38388.7
75.948,51665.5
76.0035,4975.76
76.059,33976.1
76.1145,63504.5
76.17,19934.3
76.2255,42800.3
76.281,56709.4
76.3365,-3218.42
76.392,48354.6
76.4476,22179
76.5031,55337.1
76.5586,33891.6
76.6141,41756.2
76.6696,19159.1
76.7251,66945.3
76.7806,61037.5
76.8361,37694.8
76.8916,41200.3
76.9471,31831.3
77.0026,14348.6
77.0581,33597.1
77.1136,35047.1
77.1691,52176.6
77.2247,36943
77.2802,2854.09
77.3357,29207.8
77.3912,33561.3
77.4467,57542.7
77.5022,38265.4
77.5577,31323.1
77.6132,46585.5
77.6687,53649.5
77.7242,1377.29
77.7797,78059.3
77.8352,36715.4
77.8907,35004.4
77.9462,35942.9
78.0018,34006.8
78.0573,35852.7
78.1128,52914.7
78.1683,30620.3
78.2238,47760
78.2793,64699.9
78.3348,41254
78.3903,45402.7
78.4458,35636.8
78.5013,39323.1
78.5568,56014.5
78.6123,52086.7
78.6678,63398
78.7233,73377.9
78.7788,43561.6
78.8344,75583.4
78.8899,72963.6
78.9454,24735.8
79.0009,13407.8
79.0564,63811.9
79.1119,81905.7
79.1674,-4879.69
79.2229,77690.4
79.2784,61951
79.3339,71941.4
79.3894,92084.9
79.4449,46108.3
79.5004,75081.2
79.5559,42140.6
79.6115,32367.4
79.667,38445.3
79.7225,33977
79.778,76706.5
79.8335,55222.9
79.889,64939.4
79.9445,52767.8
80.0,11952.7