File: Data_XRD/XRD_LiF.csv
5.04,0.0
5.1,0.0
5.16,0.0
5.22,0.0
5.28,0.0
5.34,0.0
5.4,0.0
5.46,0.0
5.52,0.0
5.58,0.0
5.64,0.0
5.7,0.0
5.76,0.0
5.82,0.0
5.88,0.0
5.94,0.0
6.0,0.0
6.06,0.0
6.12,0.0
6.18,0.0
6.24,0.0
6.3,0.0
6.36,0.0
6.42,0.0
6.48,0.0
6.54,0.0
6.6,0.0
6.66,0.0
6.72,0.0
6.78,0.0
6.84,0.0
6.9,0.0
6.96,0.0
7.02,0.0
7.08,0.0
7.14,0.0
7.2,0.0
7.26,0.0
7.32,0.0
7.38,0.0
7.44,0.0
7.5,0.0
7.56,0.0
7.62,0.0
7.68,0.0
7.74,0.0
7.8,0.0
7.86,0.0
7.92,0.0
7.98,0.0
8.04,0.0
8.1,0.0
8.16,0.0
8.22,0.0
8.28,0.0
8.34,0.0
8.4,0.0
8.46,0.0
8.52,0.0
8.58,0.0
8.64,0.0
8.7,0.0
8.76,0.0
8.82,0.0
8.88,0.0
8.94,0.0
9.0,0.0
9.06,0.0
9.12,0.0
9.18,0.0
9.24,0.0
9.3,0.0
9.36,0.0
9.42,0.0
9.48,0.0
9.54,0.0
9.6,0.0
9.66,0.0
9.72,0.0
9.78,0.0
9.84,0.0
9.9,0.0
9.96,0.0
10.02,0.0
10.08,0.0
10.14,0.0
10.2,0.0
10.26,0.0
10.32,0.0
10.38,0.0
10.44,0.0
10.5,0.0
10.56,0.0
10.62,0.0
10.68,0.0
10.74,0.0
10.8,0.0
10.86,0.0
10.92,0.0
10.98,0.0
11.04,0.0
11.1,0.0
11.16,0.0
11.22,0.0
11.28,0.0
11.34,0.0
11.4,0.0
11.46,0.0
11.52,0.0
11.58,0.0
11.64,0.0
11.7,0.0
11.76,0.0
11.82,0.0
11.88,0.0
11.94,0.0
12.0,0.0
12.06,0.0
12.12,0.0
12.18,0.0
12.24,0.0
12.3,0.0
12.36,0.0
12.42,0.0
12.48,0.0
12.54,0.0
12.6,0.0
12.66,0.0
12.72,0.0
12.78,0.0
12.84,0.0
12.9,0.0
12.96,0.0
13.02,0.0
13.08,0.0
13.14,0.0
13.2,0.0
13.26,0.0
13.32,0.0
13.38,0.0
13.44,0.0
13.5,0.0
13.56,0.0
13.62,0.0
13.68,0.0
13.74,0.0
13.8,0.0
13.86,0.0
13.92,0.0
13.98,0.0
14.04,0.0
14.1,0.0
14.16,0.0
14.22,0.0
14.28,0.0
14.34,0.0
14.4,0.0
14.46,0.0
14.52,0.0
14.58,0.0
14.64,0.0
14.7,0.0
14.76,0.0
14.82,0.0
14.88,0.0
14.94,0.0
15.0,0.0
15.06,0.0
15.12,0.0
15.18,0.0
15.24,0.0
15.3,0.0
15.36,0.0
15.42,0.0
15.48,0.0
15.54,0.0
15.6,0.0
15.66,0.0
15.72,0.0
15.78,0.0
15.84,0.0
15.9,0.0
15.96,0.0
16.02,0.0
16.08,0.0
16.14,0.0
16.2,0.0
16.26,0.0
16.32,0.0
16.38,0.0
16.44,0.0
16.5,0.0
16.56,0.0
16.62,0.0
16.68,0.0
16.74,0.0
16.8,0.0
16.86,0.0
16.92,0.0
16.98,0.0
17.04,0.0
17.1,0.0
17.16,0.0
17.22,0.0
17.28,0.0
17.34,0.0
17.4,0.0
17.46,0.0
17.52,0.0
17.58,0.0
17.64,0.0
17.7,0.0
17.76,0.0
17.82,0.0
17.88,0.0
17.94,0.0
18.0,0.0
18.06,0.0
18.12,0.0
18.18,0.0
18.24,0.0
18.3,0.0
18.36,0.0
18.42,0.0
18.48,0.0
18.54,0.0
18.6,0.0
18.66,0.0
18.72,0.0
18.78,0.0
18.84,0.0
18.9,0.0
18.96,0.0
19.02,0.0
19.08,0.0
19.14,0.0
19.2,0.0
19.26,0.0
19.32,0.0
19.38,0.0
19.44,0.0
19.5,0.0
19.56,0.0
19.62,0.0
19.68,0.0
19.74,0.0
19.8,0.0
19.86,0.0
19.92,0.0
19.98,0.0
20.04,0.0
20.1,0.0
20.16,0.0
20.22,0.0
20.28,0.0
20.34,0.0
20.4,0.0
20.46,0.0
20.52,0.0
20.58,0.0
20.64,0.0
20.7,0.0
20.76,0.0
20.82,0.0
20.88,0.0
20.94,0.0
21.0,0.0
21.06,0.0
21.12,0.0
21.18,0.0
21.24,0.0
21.3,0.0
21.36,0.0
21.42,0.0
21.48,0.0
21.54,0.0
21.6,0.0
21.66,0.0
21.72,0.0
21.78,0.0
21.84,0.0
21.9,0.0
21.96,0.0
22.02,0.0
22.08,0.0
22.14,0.0
22.2,0.0
22.26,0.0
22.32,0.0
22.38,0.0
22.44,0.0
22.5,0.0
22.56,0.0
22.62,0.0
22.68,0.0
22.74,0.0
22.8,0.0
22.86,0.0
22.92,0.0
22.98,0.0
23.04,0.0
23.1,0.0
23.16,0.0
23.22,0.0
23.28,0.0
23.34,0.0
23.4,0.0
23.46,0.0
23.52,0.0
23.58,0.0
23.64,0.0
23.7,0.0
23.76,0.0
23.82,0.0
23.88,0.0
23.94,0.0
24.0,0.0
24.06,0.0
24.12,0.0
24.18,0.0
24.24,0.0
24.3,0.0
24.36,0.0
24.42,0.0
24.48,0.0
24.54,0.0
24.6,0.0
24.66,0.0
24.72,0.0
24.78,0.0
24.84,0.0
24.9,0.0
24.96,0.0
25.02,0.0
25.08,0.0
25.14,0.0
25.2,0.0
25.26,0.0
25.32,0.0
25.38,0.0
25.44,0.0
25.5,0.0
25.56,0.0
25.62,0.0
25.68,0.0
25.74,0.0
25.8,0.0
25.86,0.0
25.92,0.0
25.98,0.0
26.04,0.0
26.1,0.0
26.16,0.0
26.22,0.0
26.28,0.0
26.34,0.0
26.4,0.0
26.46,0.0
26.52,0.0
26.58,0.0
26.64,0.0
26.7,0.0
26.76,0.0
26.82,0.0
26.88,0.0
26.94,0.0
27.0,0.0
27.06,0.0
27.12,0.0
27.18,0.0
27.24,0.0
27.3,0.0
27.36,0.0
27.42,0.0
27.48,0.0
27.54,0.0
27.6,0.0
27.66,0.0
27.72,0.0
27.78,0.0
27.84,0.0
27.9,0.0
27.96,0.0
28.02,0.0
28.08,0.0
28.14,0.0
28.2,0.0
28.26,0.0
28.32,0.0
28.38,0.0
28.44,0.0
28.5,0.0
28.56,0.0
28.62,0.0
28.68,0.0
28.74,0.0
28.8,0.0
28.86,0.0
28.92,0.0
28.98,0.0
29.04,0.0
29.1,0.0
29.16,0.0
29.22,0.0
29.28,0.0
29.34,0.0
29.4,0.0
29.46,0.0
29.52,0.0
29.58,0.0
29.64,0.0
29.7,0.0
29.76,0.0
29.82,0.0
29.88,0.0
29.94,0.0
30.0,0.0
30.06,0.0
30.12,0.0
30.18,0.0
30.24,0.0
30.3,0.0
30.36,0.0
30.42,0.0
30.48,0.0
30.54,0.0
30.6,0.0
30.66,0.0
30.72,0.0
30.78,0.0
30.84,0.0
30.9,0.0
30.96,0.0
31.02,0.0
31.08,0.0
31.14,0.0
31.2,0.0
31.26,0.0
31.32,0.0
31.38,0.0
31.44,0.0
31.5,0.0
31.56,0.0
31.62,0.0
31.68,0.0
31.74,0.0
31.8,0.0
31.86,0.0
31.92,0.0
31.98,0.0
32.04,0.0
32.1,0.0
32.16,0.0
32.22,0.0
32.28,0.0
32.34,0.0
32.4,0.0
32.46,0.0
32.52,0.0
32.58,0.0
32.64,0.0
32.7,0.0
32.76,0.0
32.82,0.0
32.88,0.0
32.94,0.0
33.0,0.0
33.06,0.0
33.12,0.0
33.18,0.0
33.24,0.0
33.3,0.0
33.36,0.0
33.42,0.0
33.48,0.0
33.54,0.0
33.6,0.0
33.66,0.0
33.72,0.0
33.78,0.0
33.84,0.0
33.9,0.0
33.96,0.0
34.02,0.0
34.08,0.0
34.14,0.0
34.2,0.0
34.26,0.0
34.32,0.0
34.38,0.0
34.44,0.0
34.5,0.0
34.56,0.0
34.62,0.0
34.68,0.0
34.74,0.0
34.8,0.0
34.86,0.0
34.92,0.0
34.98,0.0
35.04,1.04169e-317
35.1,3.5034e-307
35.16,7.85613e-297
35.22,1.17586e-286
35.28,1.17471e-276
35.34,7.83307e-267
35.4,3.48628e-257
35.46,1.03567e-247
35.52,2.05356e-238
35.58,2.71782e-229
35.64,2.40084e-220
35.7,1.41557e-211
35.76,5.57096e-203
35.82,1.46338e-194
35.88,2.56572e-186
35.94,3.00256e-178
36.0,2.34531e-170
36.06,1.22275e-162
36.12,4.25505e-155
36.18,9.8832e-148
36.24,1.53221e-140
36.3,1.58551e-133
36.36,1.09508e-126
36.42,5.04837e-120
36.48,1.5534e-113
36.54,3.1904e-107
36.6,4.37355e-101
36.66,4.00176e-95
36.72,2.44397e-89
36.78,9.9625e-84
36.84,2.71062e-78
36.9,4.92264e-73
36.96,5.96698e-68
37.02,4.82769e-63
37.08,2.60706e-58
37.14,9.39706e-54
37.2,2.26079e-49
37.26,3.63042e-45
37.32,3.89118e-41
37.38,2.78377e-37
37.44,1.32927e-33
37.5,4.23664e-30
37.56,9.01275e-27
37.62,1.27974e-23
37.68,1.21287e-20
37.74,7.67243e-18
37.8,3.23952e-15
37.86,9.12969e-13
37.92,1.71735e-10
37.98,2.15621e-08
38.04,1.80697e-06
38.1,0.000101074
38.16,0.00377358
38.22,0.0940365
38.28,1.56411
38.34,17.3647
38.4,128.675
38.46,636.428
38.52,2101.03
38.58,4629.59
38.64,6808.98
38.7,6684.19
38.76,4379.69
38.82,1915.43
38.88,559.135
38.94,108.942
39.0,14.1678
39.06,1.2298
39.12,0.0712522
39.18,0.00275542
39.24,7.11224e-05
39.3,1.22533e-06
39.36,1.40905e-08
39.42,1.08151e-10
39.48,5.54062e-13
39.54,1.8946e-15
39.6,4.32417e-18
39.66,6.58743e-21
39.72,6.6982e-24
39.78,4.54598e-27
39.84,2.05933e-30
39.9,6.22659e-34
39.96,1.25662e-37
40.02,1.69272e-41
40.08,1.52193e-45
40.14,9.13339e-50
40.2,3.65845e-54
40.26,9.78116e-59
40.32,1.74547e-63
40.38,2.07903e-68
40.44,1.65286e-73
40.5,8.77086e-79
40.56,3.10652e-84
40.62,7.34405e-90
40.68,1.15884e-95
40.74,1.22051e-101
40.8,8.57996e-108
40.86,4.02585e-114
40.92,1.26083e-120
40.98,2.63564e-127
41.04,3.67742e-134
41.1,3.42474e-141
41.16,2.12882e-148
41.22,8.83241e-156
41.28,2.44595e-163
41.34,4.52109e-171
41.4,5.57786e-179
41.46,4.59324e-187
41.52,2.52464e-195
41.58,9.26204e-204
41.64,2.268e-212
41.7,3.70699e-221
41.76,2.87944e-217
41.82,4.47671e-209
41.88,4.86979e-201
41.94,3.70648e-193
42.0,1.97384e-185
42.06,7.35468e-178
42.12,1.91741e-170
42.18,3.49756e-163
42.24,4.46391e-156
42.3,3.98626e-149
42.36,2.49067e-142
42.42,1.08884e-135
42.48,3.33054e-129
42.54,7.12795e-123
42.6,1.06737e-116
42.66,1.11831e-110
42.72,8.19807e-105
42.78,4.20494e-99
42.84,1.50907e-93
42.9,3.78928e-88
42.96,6.6574e-83
43.02,8.18376e-78
43.08,7.03883e-73
43.14,4.23592e-68
43.2,1.78359e-63
43.26,5.25463e-59
43.32,1.08315e-54
43.38,1.5622e-50
43.44,1.57646e-46
43.5,1.11309e-42
43.56,5.49889e-39
43.62,1.90073e-35
43.68,4.59692e-32
43.74,7.77879e-29
43.8,9.20996e-26
43.86,7.62962e-23
43.92,4.4223e-20
43.98,1.79346e-17
44.04,5.08906e-15
44.1,1.01037e-12
44.16,1.40354e-10
44.22,1.36417e-08
44.28,9.27714e-07
44.34,4.41426e-05
44.4,0.00146961
44.46,0.034233
44.52,0.55794
44.58,6.36254
44.64,50.766
44.7,283.41
44.76,1107.03
44.82,3025.52
44.88,5785.52
44.94,7740.76
45.0,7246.45
45.06,4746.43
45.12,2175.24
45.18,697.508
45.24,156.491
45.3,24.5658
45.36,2.69818
45.42,0.207353
45.48,0.0111494
45.54,0.00041946
45.6,1.10416e-05
45.66,2.03362e-07
45.72,2.62065e-09
45.78,2.36292e-11
45.84,1.49069e-13
45.9,6.58e-16
45.96,2.03219e-18
46.02,4.3914e-21
46.08,6.63959e-24
46.14,7.02391e-27
46.2,5.19897e-30
46.26,2.69249e-33
46.32,9.75645e-37
46.38,2.4736e-40
46.44,4.38799e-44
46.5,5.44632e-48
46.56,4.72976e-52
46.62,2.87393e-56
46.68,1.22183e-60
46.74,3.63453e-65
46.8,7.56457e-70
46.86,1.10159e-74
46.92,1.12242e-79
46.98,8.00185e-85
47.04,3.9914e-90
47.1,1.39303e-95
47.16,3.40169e-101
47.22,5.81206e-107
47.28,6.94807e-113
47.34,5.81163e-119
47.4,3.4012e-125
47.46,1.39273e-131
47.52,3.99025e-138
47.58,7.99895e-145
47.64,1.12193e-151
47.7,1.10103e-158
47.76,7.56018e-166
47.82,3.63216e-173
47.88,1.22095e-180
47.94,2.87164e-188
48.0,4.72565e-196
48.06,5.44118e-204
48.12,4.38354e-212
48.18,2.47091e-220
48.24,9.74513e-229
48.3,2.68917e-237
48.36,5.19218e-246
48.42,7.01423e-255
48.48,6.62996e-264
48.54,4.38471e-273
48.6,2.02895e-282
48.66,6.56903e-292
48.72,1.4881e-301
48.78,2.35863e-311
48.84,0.0
48.9,0.0
48.96,0.0
49.02,0.0
49.08,0.0
49.14,0.0
49.2,0.0
49.26,0.0
49.32,0.0
49.38,0.0
49.44,0.0
49.5,0.0
49.56,0.0
49.62,0.0
49.68,0.0
49.74,0.0
49.8,0.0
49.86,0.0
49.92,0.0
49.98,0.0
50.04,0.0
50.1,0.0
50.16,0.0
50.22,0.0
50.28,0.0
50.34,0.0
50.4,0.0
50.46,0.0
50.52,0.0
50.58,0.0
50.64,0.0
50.7,0.0
50.76,0.0
50.82,0.0
50.88,0.0
50.94,0.0
51.0,0.0
51.06,0.0
51.12,0.0
51.18,0.0
51.24,0.0
51.3,0.0
51.36,0.0
51.42,0.0
51.48,0.0
51.54,0.0
51.6,0.0
51.66,0.0
51.72,0.0
51.78,0.0
51.84,0.0
51.9,0.0
51.96,0.0
52.02,0.0
52.08,0.0
52.14,0.0
52.2,0.0
52.26,0.0
52.32,0.0
52.38,0.0
52.44,0.0
52.5,0.0
52.56,0.0
52.62,0.0
52.68,0.0
52.74,0.0
52.8,0.0
52.86,0.0
52.92,0.0
52.98,0.0
53.04,0.0
53.1,0.0
53.16,0.0
53.22,0.0
53.28,0.0
53.34,0.0
53.4,0.0
53.46,0.0
53.52,0.0
53.58,0.0
53.64,0.0
53.7,0.0
53.76,0.0
53.82,0.0
53.88,0.0
53.94,0.0
54.0,0.0
54.06,0.0
54.12,0.0
54.18,0.0
54.24,0.0
54.3,0.0
54.36,0.0
54.42,0.0
54.48,0.0
54.54,0.0
54.6,0.0
54.66,0.0
54.72,0.0
54.78,0.0
54.84,0.0
54.9,0.0
54.96,0.0
55.02,0.0
55.08,0.0
55.14,0.0
55.2,0.0
55.26,0.0
55.32,0.0
55.38,0.0
55.44,0.0
55.5,0.0
55.56,0.0
55.62,0.0
55.68,0.0
55.74,0.0
55.8,0.0
55.86,0.0
55.92,0.0
55.98,0.0
56.04,0.0
56.1,0.0
56.16,0.0
56.22,0.0
56.28,0.0
56.34,0.0
56.4,0.0
56.46,0.0
56.52,0.0
56.58,0.0
56.64,0.0
56.7,0.0
56.76,0.0
56.82,0.0
56.88,0.0
56.94,0.0
57.0,0.0
57.06,0.0
57.12,0.0
57.18,0.0
57.24,0.0
57.3,0.0
57.36,0.0
57.42,0.0
57.48,0.0
57.54,0.0
57.6,0.0
57.66,0.0
57.72,0.0
57.78,0.0
57.84,0.0
57.9,0.0
57.96,0.0
58.02,0.0
58.08,0.0
58.14,0.0
58.2,0.0
58.26,0.0
58.32,0.0
58.38,0.0
58.44,0.0
58.5,0.0
58.56,0.0
58.62,0.0
58.68,0.0
58.74,0.0
58.8,0.0
58.86,0.0
58.92,0.0
58.98,0.0
59.04,0.0
59.1,0.0
59.16,0.0
59.22,0.0
59.28,0.0
59.34,0.0
59.4,0.0
59.46,0.0
59.52,0.0
59.58,0.0
59.64,0.0
59.7,0.0
59.76,0.0
59.82,0.0
59.88,0.0
59.94,0.0
60.0,0.0
60.06,0.0
60.12,0.0
60.18,0.0
60.24,0.0
60.3,0.0
60.36,0.0
60.42,0.0
60.48,0.0
60.54,0.0
60.6,0.0
60.66,0.0
60.72,0.0
60.78,1.22827e-313
60.84,1.23507e-305
60.9,9.80765e-298
60.96,6.15054e-290
61.02,3.04604e-282
61.08,1.19133e-274
61.14,3.67963e-267
61.2,8.97533e-260
61.26,1.72891e-252
61.32,2.63007e-245
61.38,3.15964e-238
61.44,2.99766e-231
61.5,2.24596e-224
61.56,1.32891e-217
61.62,6.2096e-211
61.68,2.29143e-204
61.74,6.67767e-198
61.8,1.5368e-191
61.86,2.79309e-185
61.92,4.00891e-179
61.98,4.54405e-173
62.04,4.06756e-167
62.1,2.87541e-161
62.16,1.60524e-155
62.22,7.07709e-150
62.28,2.46402e-144
62.34,6.77498e-139
62.4,1.47112e-133
62.46,2.52267e-128
62.52,3.41624e-123
62.58,3.65352e-118
62.64,3.08566e-113
62.7,2.05807e-108
62.76,1.08404e-103
62.82,4.50929e-99
62.88,1.4813e-94
62.94,3.84285e-90
63.0,7.87297e-86
63.06,1.27379e-81
63.12,1.62754e-77
63.18,1.64226e-73
63.24,1.30865e-69
63.3,8.23537e-66
63.36,4.09276e-62
63.42,1.60629e-58
63.48,4.97858e-55
63.54,1.2186e-51
63.6,2.35555e-48
63.66,3.59583e-45
63.72,4.3349e-42
63.78,4.127e-39
63.84,3.10287e-36
63.9,1.84233e-33
63.96,8.63868e-31
64.02,3.1989e-28
64.08,9.35469e-26
64.14,2.16039e-23
64.2,3.94012e-21
64.26,5.67494e-19
64.32,6.45488e-17
64.38,5.79815e-15
64.44,4.11306e-13
64.5,2.30418e-11
64.56,1.01939e-09
64.62,3.56157e-08
64.68,9.82688e-07
64.74,2.14124e-05
64.8,0.000368458
64.86,0.0050071
64.92,0.0537353
64.98,0.455415
65.04,3.0481
65.1,16.1111
65.16,67.2508
65.22,221.689
65.28,577.118
65.34,1186.48
65.4,1926.33
65.46,2469.87
65.52,2500.88
65.58,1999.8
65.64,1262.86
65.7,629.794
65.76,248.037
65.82,77.1451
65.88,18.9485
65.94,3.6755
66.0,0.563032
66.06,0.068112
66.12,0.00650713
66.18,0.000490941
66.24,2.92512e-05
66.3,1.37636e-06
66.36,5.11443e-08
66.42,1.50084e-09
66.48,3.47815e-11
66.54,6.36556e-13
66.6,9.20024e-15
66.66,1.05011e-16
66.72,9.46559e-19
66.78,6.73805e-21
66.84,3.78787e-23
66.9,1.68163e-25
66.96,5.89577e-28
67.02,1.63239e-30
67.08,3.56931e-33
67.14,6.16338e-36
67.2,8.4048e-39
67.26,9.05129e-42
67.32,7.69783e-45
67.38,5.17012e-48
67.44,2.74226e-51
67.5,1.14866e-54
67.56,3.79967e-58
67.62,9.92607e-62
67.68,2.04778e-65
67.74,3.33628e-69
67.8,4.29257e-73
67.86,4.36162e-77
67.92,3.49987e-81
67.98,2.21784e-85
68.04,1.1099e-89
68.1,4.38643e-94
68.16,1.36903e-98
68.22,3.37436e-103
68.28,6.56815e-108
68.34,1.00965e-112
68.4,1.22566e-117
68.46,1.17502e-122
68.52,8.89604e-128
68.58,5.3189e-133
68.64,2.51143e-138
68.7,9.36474e-144
68.76,2.75768e-149
68.82,6.4131e-155
68.88,1.17779e-160
68.94,1.7082e-166
69.0,1.95653e-172
69.06,1.76973e-178
69.12,1.26417e-184
69.18,7.13142e-191
69.24,3.17703e-197
69.3,1.11774e-203
69.36,3.10554e-210
69.42,6.81407e-217
69.48,1.18073e-223
69.54,1.61573e-230
69.6,1.74608e-237
69.66,1.49016e-244
69.72,1.00433e-251
69.78,5.34555e-259
69.84,2.2469e-266
69.9,7.45849e-274
69.96,1.9552e-281
70.02,4.0477e-289
70.08,6.61757e-297
70.14,8.54405e-305
70.2,8.71172e-313
70.26,1.2653e-320
70.32,0.0
70.38,0.0
70.44,0.0
70.5,0.0
70.56,0.0
70.62,0.0
70.68,0.0
70.74,0.0
70.8,0.0
70.86,0.0
70.92,0.0
70.98,0.0
71.04,0.0
71.1,0.0
71.16,0.0
71.22,0.0
71.28,0.0
71.34,0.0
71.4,0.0
71.46,0.0
71.52,0.0
71.58,0.0
71.64,0.0
71.7,0.0
71.76,0.0
71.82,0.0
71.88,0.0
71.94,0.0
72.0,0.0
72.06,0.0
72.12,0.0
72.18,0.0
72.24,0.0
72.3,0.0
72.36,0.0
72.42,0.0
72.48,0.0
72.54,0.0
72.6,0.0
72.66,0.0
72.72,0.0
72.78,0.0
72.84,0.0
72.9,0.0
72.96,0.0
73.02,2.52e-321
73.08,1.8175e-314
73.14,8.3615e-308
73.2,3.2674e-301
73.26,1.0845e-294
73.32,3.0575e-288
73.38,7.32171e-282
73.44,1.48925e-275
73.5,2.57294e-269
73.56,3.77574e-263
73.62,4.70635e-257
73.68,4.98281e-251
73.74,4.48098e-245
73.8,3.4228e-239
73.86,2.22074e-233
73.92,1.22384e-227
73.98,5.72875e-222
74.04,2.27774e-216
74.1,7.69231e-211
74.16,2.20657e-205
74.22,5.37638e-200
74.28,1.11268e-194
74.34,1.95595e-189
74.4,2.92049e-184
74.46,3.70393e-179
74.52,3.99005e-174
74.58,3.65093e-169
74.64,2.83751e-164
74.7,1.87318e-159
74.76,1.05034e-154
74.82,5.00255e-150
74.88,2.02377e-145
74.94,6.95408e-141
75.0,2.02968e-136
75.06,5.0318e-132
75.12,1.05957e-127
75.18,1.89515e-123
75.24,2.87916e-119
75.3,3.71534e-115
75.36,4.0723e-111
75.42,3.79131e-107
75.48,2.99812e-103
75.54,2.0138e-99
75.6,1.14893e-95
75.66,5.56775e-92
75.72,2.29179e-88
75.78,8.01269e-85
75.84,2.37953e-81
75.9,6.00224e-78
75.96,1.28601e-74
76.02,2.34036e-71
76.08,3.6177e-68
76.14,4.74996e-65
76.2,5.29732e-62
76.26,5.01802e-59
76.32,4.03754e-56
76.38,2.75937e-53
76.44,1.60182e-50
76.5,7.89813e-48
76.56,3.30784e-45
76.62,1.17672e-42
76.68,3.55559e-40
76.74,9.12556e-38
76.8,1.98937e-35
76.86,3.68367e-33
76.92,5.79368e-31
76.98,7.73995e-29
77.04,8.78274e-27
77.1,8.46508e-25
77.16,6.93013e-23
77.22,4.81903e-21
77.28,2.84635e-19
77.34,1.42799e-17
77.4,6.08514e-16
77.46,2.20255e-14
77.52,6.77157e-13
77.58,1.76832e-11
77.64,3.92233e-10
77.7,7.38983e-09
77.76,1.18259e-07
77.82,1.60747e-06
77.88,1.85592e-05
77.94,0.000182006
78.0,0.00151608
78.06,0.0107267
78.12,0.0644644
78.18,0.329065
78.24,1.42677
78.3,5.25453
78.36,16.437
78.42,43.6738
78.48,98.5662
78.54,188.949
78.6,307.659
78.66,425.504
78.72,499.857
78.78,498.767
78.84,422.726
78.9,304.319
78.96,186.083
79.02,96.6486
79.08,42.6375
79.14,15.9771
79.2,5.08525
79.26,1.37479
79.32,0.315696
79.38,0.0615758
79.44,0.0102014
79.5,0.00143556
79.56,0.000171589
79.62,1.74207e-05
79.68,1.50229e-06
79.74,1.10039e-07
79.8,6.84624e-09
79.86,3.61797e-10
79.92,1.62401e-11
79.98,6.19183e-13
80.04,2.00521e-14
80.1,5.51579e-16
80.16,1.28874e-17
80.22,2.5576e-19
80.28,4.31131e-21
80.34,6.17297e-23
80.4,7.50737e-25
80.46,7.75516e-27
80.52,6.8046e-29
80.58,5.07135e-31
80.64,3.21035e-33
80.7,1.7262e-35
80.76,7.88391e-38
80.82,4.17306e-40
80.88,2.28826e-38
80.94,4.04916e-36
81.0,6.17697e-34
81.06,8.12301e-32
81.12,9.20852e-30
81.18,8.99899e-28
81.24,7.58104e-26
81.3,5.50548e-24
81.36,3.44662e-22
81.42,1.86004e-20
81.48,8.65332e-19
81.54,3.47036e-17
81.6,1.19977e-15
81.66,3.57562e-14
81.72,9.18622e-13
81.78,2.03448e-11
81.84,3.8842e-10
81.9,6.39264e-09
81.96,9.06965e-08
82.02,1.10926e-06
82.08,1.16951e-05
82.14,0.000106294
82.2,0.000832808
82.26,0.00562486
82.32,0.0327499
82.38,0.164376
82.44,0.711212
82.5,2.65272
82.56,8.5293
82.62,23.6411
82.68,56.4876
82.74,116.351
82.8,206.594
82.86,316.226
82.92,417.261
82.98,474.624
83.04,465.396
83.1,393.393
83.16,286.657
83.22,180.065
83.28,97.505
83.34,45.5152
83.4,18.3154
83.46,6.35343
83.52,1.8999
83.58,0.489763
83.64,0.108836
83.7,0.0208491
83.76,0.00344299
83.82,0.000490135
83.88,6.01487e-05
83.94,6.36309e-06
84.0,5.80285e-07
84.06,4.5619e-08
84.12,3.09158e-09
84.18,1.80613e-10
84.24,9.09591e-12
84.3,3.94889e-13
84.36,1.47787e-14
84.42,4.76791e-16
84.48,1.32602e-17
84.54,3.17911e-19
84.6,6.57039e-21
84.66,1.1706e-22
84.72,1.79786e-24
84.78,2.38032e-26
84.84,2.71673e-28
84.9,2.67293e-30
84.96,2.26705e-32
85.02,1.65755e-34
85.08,1.04472e-36
85.14,5.67634e-39
85.2,2.65868e-41
85.26,1.07349e-43
85.32,3.73643e-46
85.38,1.12111e-48
85.44,2.89983e-51
85.5,6.46587e-54
85.56,1.24283e-56
85.62,2.05935e-59
85.68,2.94156e-62
85.74,3.62207e-65
85.8,3.84475e-68
85.86,3.51812e-71
85.92,2.77513e-74
85.98,1.88707e-77
86.04,1.10617e-80
86.1,5.58973e-84
86.16,2.43494e-87
86.22,9.14363e-91
86.28,2.95992e-94
86.34,8.25984e-98
86.4,1.98699e-101
86.46,4.1205e-105
86.52,7.36606e-109
86.58,1.13515e-112
86.64,1.508e-116
86.7,1.72695e-120
86.76,1.70487e-124
86.82,1.45089e-128
86.88,1.06441e-132
86.94,6.7315e-137
87.0,3.66984e-141
87.06,1.7247e-145
87.12,6.98736e-150
87.18,2.4403e-154
87.24,7.34689e-159
87.3,1.90676e-163
87.36,4.26598e-168
87.42,8.22761e-173
87.48,1.36792e-177
87.54,1.96055e-182
87.6,2.42229e-187
87.66,2.57991e-192
87.72,2.36873e-197
87.78,1.87482e-202
87.84,1.27918e-207
87.9,7.52379e-213
87.96,3.81481e-218
88.02,1.6674e-223
88.08,6.28259e-229
88.14,2.04065e-234
88.2,5.71386e-240
88.26,1.37918e-245
88.32,2.86976e-251
88.38,5.14754e-257
88.44,7.9595e-263
88.5,1.06097e-268
88.56,1.21914e-274
88.62,1.20762e-280
88.68,1.0312e-286
88.74,7.59076e-293
88.8,4.8168e-299
88.86,2.6349e-305
88.92,1.24251e-311
88.98,5.04987e-318
89.04,0.0
89.1,0.0
89.16,0.0
89.22,0.0
89.28,0.0
89.34,0.0
89.4,0.0
89.46,0.0
89.52,0.0
89.58,0.0
89.64,0.0
89.7,0.0
89.76,0.0
89.82,0.0
89.88,0.0
89.94,0.0
89.99,0.0