File: Data_XRD/XRD_LiF-Pure.csv
20.02,0.0
20.06,0.0
20.1,0.0
20.14,0.0
20.18,0.0
20.22,0.0
20.26,0.0
20.3,0.0
20.34,0.0
20.38,0.0
20.42,0.0
20.46,0.0
20.5,0.0
20.54,0.0
20.58,0.0
20.62,0.0
20.66,0.0
20.7,0.0
20.74,0.0
20.78,0.0
20.82,0.0
20.86,0.0
20.9,0.0
20.94,0.0
20.98,0.0
21.02,0.0
21.06,0.0
21.1,0.0
21.14,0.0
21.18,0.0
21.22,0.0
21.26,0.0
21.3,0.0
21.34,0.0
21.38,0.0
21.42,0.0
21.46,0.0
21.5,0.0
21.54,0.0
21.58,0.0
21.62,0.0
21.66,0.0
21.7,0.0
21.74,0.0
21.78,0.0
21.82,0.0
21.86,0.0
21.9,0.0
21.94,0.0
21.98,0.0
22.02,0.0
22.06,0.0
22.1,0.0
22.14,0.0
22.18,0.0
22.22,0.0
22.26,0.0
22.3,0.0
22.34,0.0
22.38,0.0
22.42,0.0
22.46,0.0
22.5,0.0
22.54,0.0
22.58,0.0
22.62,0.0
22.66,0.0
22.7,0.0
22.74,0.0
22.78,0.0
22.82,0.0
22.86,0.0
22.9,0.0
22.94,0.0
22.98,0.0
23.02,0.0
23.06,0.0
23.1,0.0
23.14,0.0
23.18,0.0
23.22,0.0
23.26,0.0
23.3,0.0
23.34,0.0
23.38,0.0
23.42,0.0
23.46,0.0
23.5,0.0
23.54,0.0
23.58,0.0
23.62,0.0
23.66,0.0
23.7,0.0
23.74,0.0
23.78,0.0
23.82,0.0
23.86,0.0
23.9,0.0
23.94,0.0
23.98,0.0
24.02,0.0
24.06,0.0
24.1,0.0
24.14,0.0
24.18,0.0
24.22,0.0
24.26,0.0
24.3,0.0
24.34,0.0
24.38,0.0
24.42,0.0
24.46,0.0
24.5,0.0
24.54,0.0
24.58,0.0
24.62,0.0
24.66,0.0
24.7,0.0
24.74,0.0
24.78,0.0
24.82,0.0
24.86,0.0
24.9,0.0
24.94,0.0
24.98,0.0
25.02,0.0
25.06,0.0
25.1,0.0
25.14,0.0
25.18,0.0
25.22,0.0
25.26,0.0
25.3,0.0
25.34,0.0
25.38,0.0
25.42,0.0
25.46,0.0
25.5,0.0
25.54,0.0
25.58,0.0
25.62,0.0
25.66,0.0
25.7,0.0
25.74,0.0
25.78,0.0
25.82,0.0
25.86,0.0
25.9,0.0
25.94,0.0
25.98,0.0
26.02,0.0
26.06,0.0
26.1,0.0
26.14,0.0
26.18,0.0
26.22,0.0
26.26,0.0
26.3,0.0
26.34,0.0
26.38,0.0
26.42,0.0
26.46,0.0
26.5,0.0
26.54,0.0
26.58,0.0
26.62,0.0
26.66,0.0
26.7,0.0
26.74,0.0
26.78,0.0
26.82,0.0
26.86,0.0
26.9,0.0
26.94,0.0
26.98,0.0
27.02,0.0
27.06,0.0
27.1,0.0
27.14,0.0
27.18,0.0
27.22,0.0
27.26,0.0
27.3,0.0
27.34,0.0
27.38,0.0
27.42,0.0
27.46,0.0
27.5,0.0
27.54,0.0
27.58,0.0
27.62,0.0
27.66,0.0
27.7,0.0
27.74,0.0
27.78,0.0
27.82,0.0
27.86,0.0
27.9,0.0
27.94,0.0
27.98,0.0
28.02,0.0
28.06,0.0
28.1,0.0
28.14,0.0
28.18,0.0
28.22,0.0
28.26,0.0
28.3,0.0
28.34,0.0
28.38,0.0
28.42,0.0
28.46,0.0
28.5,0.0
28.54,0.0
28.58,0.0
28.62,0.0
28.66,0.0
28.7,0.0
28.74,0.0
28.78,0.0
28.82,0.0
28.86,0.0
28.9,0.0
28.94,0.0
28.98,0.0
29.02,0.0
29.06,0.0
29.1,0.0
29.14,0.0
29.18,0.0
29.22,0.0
29.26,0.0
29.3,0.0
29.34,0.0
29.38,0.0
29.42,0.0
29.46,0.0
29.5,0.0
29.54,0.0
29.58,0.0
29.62,0.0
29.66,0.0
29.7,0.0
29.74,0.0
29.78,0.0
29.82,0.0
29.86,0.0
29.9,0.0
29.94,0.0
29.98,0.0
30.02,0.0
30.06,0.0
30.1,0.0
30.14,0.0
30.18,0.0
30.22,0.0
30.26,0.0
30.3,0.0
30.34,0.0
30.38,0.0
30.42,0.0
30.46,0.0
30.5,0.0
30.54,0.0
30.58,0.0
30.62,0.0
30.66,0.0
30.7,0.0
30.74,0.0
30.78,0.0
30.82,0.0
30.86,0.0
30.9,0.0
30.94,0.0
30.98,0.0
31.02,0.0
31.06,0.0
31.1,0.0
31.14,0.0
31.18,0.0
31.22,0.0
31.26,0.0
31.3,0.0
31.34,0.0
31.38,0.0
31.42,0.0
31.46,0.0
31.5,0.0
31.54,0.0
31.58,0.0
31.62,0.0
31.66,0.0
31.7,0.0
31.74,0.0
31.78,0.0
31.82,0.0
31.86,0.0
31.9,0.0
31.94,0.0
31.98,0.0
32.02,0.0
32.06,0.0
32.1,0.0
32.14,0.0
32.18,0.0
32.22,0.0
32.26,0.0
32.3,0.0
32.34,0.0
32.38,0.0
32.42,0.0
32.46,0.0
32.5,0.0
32.54,0.0
32.58,0.0
32.62,0.0
32.66,0.0
32.7,0.0
32.74,0.0
32.78,0.0
32.82,0.0
32.86,0.0
32.9,0.0
32.94,0.0
32.98,0.0
33.02,0.0
33.06,0.0
33.1,0.0
33.14,0.0
33.18,0.0
33.22,0.0
33.26,0.0
33.3,0.0
33.34,0.0
33.38,0.0
33.42,0.0
33.46,0.0
33.5,0.0
33.54,0.0
33.58,0.0
33.62,0.0
33.66,0.0
33.7,0.0
33.74,0.0
33.78,0.0
33.82,0.0
33.86,0.0
33.9,0.0
33.94,0.0
33.98,0.0
34.02,0.0
34.06,0.0
34.1,0.0
34.14,0.0
34.18,0.0
34.22,0.0
34.26,0.0
34.3,0.0
34.34,0.0
34.38,0.0
34.42,0.0
34.46,0.0
34.5,0.0
34.54,0.0
34.58,0.0
34.62,0.0
34.66,0.0
34.7,0.0
34.74,0.0
34.78,0.0
34.82,0.0
34.86,0.0
34.9,0.0
34.94,0.0
34.98,0.0
35.02,0.0
35.06,3.92921e-316
35.1,3.91162e-309
35.14,3.25368e-302
35.18,2.26132e-295
35.22,1.31315e-288
35.26,6.37144e-282
35.3,2.58302e-275
35.34,8.74951e-269
35.38,2.47633e-262
35.42,5.856e-256
35.46,1.15707e-249
35.5,1.91024e-243
35.54,2.63501e-237
35.58,3.03701e-231
35.62,2.92466e-225
35.66,2.35328e-219
35.7,1.58212e-213
35.74,8.88735e-208
35.78,4.17132e-202
35.82,1.63584e-196
35.86,5.36015e-191
35.9,1.46751e-185
35.94,3.357e-180
35.98,6.41639e-175
36.02,1.0247e-169
36.06,1.36732e-164
36.1,1.52445e-159
36.14,1.42011e-154
36.18,1.10535e-149
36.22,7.18858e-145
36.26,3.90621e-140
36.3,1.77352e-135
36.34,6.72794e-131
36.38,2.13254e-126
36.42,5.6478e-122
36.46,1.24977e-117
36.5,2.31072e-113
36.54,3.56971e-109
36.58,4.60772e-105
36.62,4.96943e-101
36.66,4.47811e-97
36.7,3.37171e-93
36.74,2.12116e-89
36.78,1.11497e-85
36.82,4.89692e-82
36.86,1.79701e-78
36.9,5.5099e-75
36.94,1.41158e-71
36.98,3.02158e-68
37.02,5.40419e-65
37.06,8.07597e-62
37.1,1.00839e-58
37.14,1.05203e-55
37.18,9.17051e-53
37.22,6.67926e-50
37.26,4.06472e-47
37.3,2.06681e-44
37.34,8.78088e-42
37.38,3.11705e-39
37.42,9.2452e-37
37.46,2.29117e-34
37.5,4.74422e-32
37.54,8.20806e-30
37.58,1.18654e-27
37.62,1.43316e-25
37.66,1.44635e-23
37.7,1.2196e-21
37.74,8.59276e-20
37.78,5.05841e-18
37.82,2.48807e-16
37.86,1.02254e-14
37.9,3.51127e-13
37.94,1.00743e-11
37.98,2.4151e-10
38.02,4.83751e-09
38.06,8.09611e-08
38.1,1.13214e-06
38.14,1.32278e-05
38.18,0.000129136
38.22,0.00105335
38.26,0.007179
38.3,0.0408813
38.34,0.194515
38.38,0.773299
38.42,2.56868
38.46,7.12921
38.5,16.5326
38.54,32.0336
38.58,51.8608
38.62,70.1521
38.66,79.2884
38.7,74.8765
38.74,59.0813
38.78,38.9513
38.82,21.4566
38.86,9.87569
38.9,3.79789
38.94,1.22035
38.98,0.327638
39.02,0.0734973
39.06,0.0137758
39.1,0.00215739
39.14,0.000282299
39.18,3.08643e-05
39.22,2.8195e-06
39.26,2.15206e-07
39.3,1.37248e-08
39.34,7.31348e-10
39.38,3.25619e-11
39.42,1.21133e-12
39.46,3.76517e-14
39.5,9.77851e-16
39.54,2.12192e-17
39.58,3.84727e-19
39.62,5.82833e-21
39.66,7.3774e-23
39.7,7.80244e-25
39.74,6.89485e-27
39.78,5.09081e-29
39.82,3.14063e-31
39.86,1.61888e-33
39.9,6.97233e-36
39.94,2.50906e-38
39.98,7.54415e-41
40.02,1.8953e-43
40.06,3.97845e-46
40.1,6.97776e-49
40.14,1.02256e-51
40.18,1.25206e-54
40.22,1.28095e-57
40.26,1.09497e-60
40.3,7.82068e-64
40.34,4.66717e-67
40.38,2.32718e-70
40.42,9.69557e-74
40.46,3.37508e-77
40.5,9.81666e-81
40.54,2.38567e-84
40.58,4.84423e-88
40.62,8.21876e-92
40.66,1.16508e-95
40.7,1.37998e-99
40.74,1.36571e-103
40.78,1.1293e-107
40.82,7.80242e-112
40.86,4.50419e-116
40.9,2.17256e-120
40.94,8.75578e-125
40.98,2.94839e-129
41.02,8.29551e-134
41.06,1.95015e-138
41.1,3.83056e-143
41.14,6.2867e-148
41.18,8.62087e-153
41.22,9.8775e-158
41.26,9.45607e-163
41.3,7.56383e-168
41.34,5.05523e-173
41.38,2.82298e-178
41.42,1.31717e-183
41.46,5.13503e-189
41.5,1.67268e-194
41.54,4.55249e-200
41.58,1.03527e-205
41.62,1.9671e-211
41.66,3.12295e-217
41.7,4.14274e-223
41.74,5.52289e-222
41.78,1.79888e-216
41.82,4.99925e-211
41.86,1.18542e-205
41.9,2.39833e-200
41.94,4.14008e-195
41.98,6.09784e-190
42.02,7.66318e-185
42.06,8.2169e-180
42.1,7.5175e-175
42.14,5.8682e-170
42.18,3.90843e-165
42.22,2.22109e-160
42.26,1.07695e-155
42.3,4.45546e-151
42.34,1.57273e-146
42.38,4.73678e-142
42.42,1.21724e-137
42.46,2.66894e-133
42.5,4.99304e-129
42.54,7.96999e-125
42.58,1.08547e-120
42.62,1.26137e-116
42.66,1.25064e-112
42.7,1.05801e-108
42.74,7.63686e-105
42.78,4.70332e-101
42.82,2.4715e-97
42.86,1.10811e-93
42.9,4.23907e-90
42.94,1.38365e-86
42.98,3.85342e-83
43.02,9.15656e-80
43.06,1.85646e-76
43.1,3.21147e-73
43.14,4.74012e-70
43.18,5.96954e-67
43.22,6.41443e-64
43.26,5.88087e-61
43.3,4.60036e-58
43.34,3.07049e-55
43.38,1.7486e-52
43.42,8.49645e-50
43.46,3.52251e-47
43.5,1.24604e-44
43.54,3.76079e-42
43.58,9.68482e-40
43.62,2.12799e-37
43.66,3.98947e-35
43.7,6.38156e-33
43.74,8.70971e-31
43.78,1.01426e-28
43.82,1.00776e-26
43.86,8.54344e-25
43.9,6.1798e-23
43.94,3.81402e-21
43.98,2.00843e-19
44.02,9.02396e-18
44.06,3.45942e-16
44.1,1.13156e-14
44.14,3.15802e-13
44.18,7.52004e-12
44.22,1.52789e-10
44.26,2.64867e-09
44.3,3.9177e-08
44.34,4.94426e-07
44.38,5.32398e-06
44.42,4.89146e-05
44.46,0.000383448
44.5,0.00256472
44.54,0.0146366
44.58,0.07127
44.62,0.296101
44.66,1.04963
44.7,3.1747
44.74,8.19283
44.78,18.0398
44.82,33.8918
44.86,54.328
44.9,74.3052
44.94,86.7123
44.98,86.3393
45.02,73.3504
45.06,53.1695
45.1,32.8843
45.14,17.3533
45.18,7.8134
45.22,3.00168
45.26,0.98391
45.3,0.275177
45.34,0.0656653
45.38,0.0133698
45.42,0.00232263
45.46,0.000344272
45.5,4.35401e-05
45.54,4.69833e-06
45.58,4.32577e-07
45.62,3.39821e-08
45.66,2.27773e-09
45.7,1.30263e-10
45.74,6.35631e-12
45.78,2.6464e-13
45.82,9.40097e-15
45.86,2.84941e-16
45.9,7.36894e-18
45.94,1.626e-19
45.98,3.06127e-21
46.02,4.91755e-23
46.06,6.74005e-25
46.1,7.88212e-27
46.14,7.86482e-29
46.18,6.69578e-31
46.22,4.86384e-33
46.26,3.01456e-35
46.3,1.59417e-37
46.34,7.19302e-40
46.38,2.7692e-42
46.42,9.09627e-45
46.46,2.5494e-47
46.5,6.09649e-50
46.54,1.24391e-52
46.58,2.16551e-55
46.62,3.21663e-58
46.66,4.07668e-61
46.7,4.40838e-64
46.74,4.0674e-67
46.78,3.202e-70
46.82,2.15076e-73
46.86,1.23262e-76
46.9,6.02742e-80
46.94,2.51478e-83
46.98,8.95232e-87
47.02,2.71917e-90
47.06,7.047e-94
47.1,1.55825e-97
47.14,2.93993e-101
47.18,4.73264e-105
47.22,6.50032e-109
47.26,7.61786e-113
47.3,7.61724e-117
47.34,6.49872e-121
47.38,4.73069e-125
47.42,2.93824e-129
47.46,1.5571e-133
47.5,7.04062e-138
47.54,2.71626e-142
47.58,8.94127e-147
47.62,2.51127e-151
47.66,6.018e-156
47.7,1.23049e-160
47.74,2.14669e-165
47.78,3.19542e-170
47.82,4.05837e-175
47.86,4.39787e-180
47.9,4.06629e-185
47.94,3.2079e-190
47.98,2.15929e-195
48.02,1.24012e-200
48.06,6.07695e-206
48.1,2.54082e-211
48.14,9.06414e-217
48.18,2.75896e-222
48.22,7.16525e-228
48.26,1.58775e-233
48.3,3.00193e-239
48.34,4.84267e-245
48.38,6.66554e-251
48.42,7.82802e-257
48.46,7.84394e-263
48.5,6.7063e-269
48.54,4.89213e-275
48.58,3.04494e-281
48.62,1.61706e-287
48.66,7.32721e-294
48.7,2.83281e-300
48.74,9.34466e-307
48.78,2.63012e-313
48.82,6.323e-320
48.86,0.0
48.9,0.0
48.94,0.0
48.98,0.0
49.02,0.0
49.06,0.0
49.1,0.0
49.14,0.0
49.18,0.0
49.22,0.0
49.26,0.0
49.3,0.0
49.34,0.0
49.38,0.0
49.42,0.0
49.46,0.0
49.5,0.0
49.54,0.0
49.58,0.0
49.62,0.0
49.66,0.0
49.7,0.0
49.74,0.0
49.78,0.0
49.82,0.0
49.86,0.0
49.9,0.0
49.94,0.0
49.98,0.0
50.02,0.0
50.06,0.0
50.1,0.0
50.14,0.0
50.18,0.0
50.22,0.0
50.26,0.0
50.3,0.0
50.34,0.0
50.38,0.0
50.42,0.0
50.46,0.0
50.5,0.0
50.54,0.0
50.58,0.0
50.62,0.0
50.66,0.0
50.7,0.0
50.74,0.0
50.78,0.0
50.82,0.0
50.86,0.0
50.9,0.0
50.94,0.0
50.98,0.0
51.02,0.0
51.06,0.0
51.1,0.0
51.14,0.0
51.18,0.0
51.22,0.0
51.26,0.0
51.3,0.0
51.34,0.0
51.38,0.0
51.42,0.0
51.46,0.0
51.5,0.0
51.54,0.0
51.58,0.0
51.62,0.0
51.66,0.0
51.7,0.0
51.74,0.0
51.78,0.0
51.82,0.0
51.86,0.0
51.9,0.0
51.94,0.0
51.98,0.0
52.02,0.0
52.06,0.0
52.1,0.0
52.14,0.0
52.18,0.0
52.22,0.0
52.26,0.0
52.3,0.0
52.34,0.0
52.38,0.0
52.42,0.0
52.46,0.0
52.5,0.0
52.54,0.0
52.58,0.0
52.62,0.0
52.66,0.0
52.7,0.0
52.74,0.0
52.78,0.0
52.82,0.0
52.86,0.0
52.9,0.0
52.94,0.0
52.98,0.0
53.02,0.0
53.06,0.0
53.1,0.0
53.14,0.0
53.18,0.0
53.22,0.0
53.26,0.0
53.3,0.0
53.34,0.0
53.38,0.0
53.42,0.0
53.46,0.0
53.5,0.0
53.54,0.0
53.58,0.0
53.62,0.0
53.66,0.0
53.7,0.0
53.74,0.0
53.78,0.0
53.82,0.0
53.86,0.0
53.9,0.0
53.94,0.0
53.98,0.0
54.02,0.0
54.06,0.0
54.1,0.0
54.14,0.0
54.18,0.0
54.22,0.0
54.26,0.0
54.3,0.0
54.34,0.0
54.38,0.0
54.42,0.0
54.46,0.0
54.5,0.0
54.54,0.0
54.58,0.0
54.62,0.0
54.66,0.0
54.7,0.0
54.74,0.0
54.78,0.0
54.82,0.0
54.86,0.0
54.9,0.0
54.94,0.0
54.98,0.0
55.02,0.0
55.06,0.0
55.1,0.0
55.14,0.0
55.18,0.0
55.22,0.0
55.26,0.0
55.3,0.0
55.34,0.0
55.38,0.0
55.42,0.0
55.46,0.0
55.5,0.0
55.54,0.0
55.58,0.0
55.62,0.0
55.66,0.0
55.7,0.0
55.74,0.0
55.78,0.0
55.82,0.0
55.86,0.0
55.9,0.0
55.94,0.0
55.98,0.0
56.02,0.0
56.06,0.0
56.1,0.0
56.14,0.0
56.18,0.0
56.22,0.0
56.26,0.0
56.3,0.0
56.34,0.0
56.38,0.0
56.42,0.0
56.46,0.0
56.5,0.0
56.54,0.0
56.58,0.0
56.62,0.0
56.66,0.0
56.7,0.0
56.74,0.0
56.78,0.0
56.82,0.0
56.86,0.0
56.9,0.0
56.94,0.0
56.98,0.0
57.02,0.0
57.06,0.0
57.1,0.0
57.14,0.0
57.18,0.0
57.22,0.0
57.26,0.0
57.3,0.0
57.34,0.0
57.38,0.0
57.42,0.0
57.46,0.0
57.5,0.0
57.54,0.0
57.58,0.0
57.62,0.0
57.66,0.0
57.7,0.0
57.74,0.0
57.78,0.0
57.82,0.0
57.86,0.0
57.9,0.0
57.94,0.0
57.98,0.0
58.02,0.0
58.06,0.0
58.1,0.0
58.14,0.0
58.18,0.0
58.22,0.0
58.26,0.0
58.3,0.0
58.34,0.0
58.38,0.0
58.42,0.0
58.46,0.0
58.5,0.0
58.54,0.0
58.58,0.0
58.62,0.0
58.66,0.0
58.7,0.0
58.74,0.0
58.78,0.0
58.82,0.0
58.86,0.0
58.9,0.0
58.94,0.0
58.98,0.0
59.02,0.0
59.06,0.0
59.1,0.0
59.14,0.0
59.18,0.0
59.22,0.0
59.26,0.0
59.3,0.0
59.34,0.0
59.38,0.0
59.42,0.0
59.46,0.0
59.5,0.0
59.54,0.0
59.58,0.0
59.62,0.0
59.66,0.0
59.7,0.0
59.74,0.0
59.78,0.0
59.82,0.0
59.86,0.0
59.9,0.0
59.94,0.0
59.98,0.0
60.02,0.0
60.06,0.0
60.1,0.0
60.14,0.0
60.18,0.0
60.22,0.0
60.26,0.0
60.3,0.0
60.34,0.0
60.38,0.0
60.42,0.0
60.46,0.0
60.5,0.0
60.54,0.0
60.58,0.0
60.62,0.0
60.66,0.0
60.7,0.0
60.74,5.53e-321
60.78,1.37112e-315
60.82,3.04386e-310
60.86,6.08426e-305
60.9,1.09502e-299
60.94,1.77448e-294
60.98,2.58913e-289
61.02,3.40148e-284
61.06,4.02361e-279
61.1,4.28545e-274
61.14,4.10969e-269
61.18,3.54859e-264
61.22,2.75889e-259
61.26,1.93129e-254
61.3,1.21728e-249
61.34,6.90828e-245
61.38,3.53005e-240
61.42,1.62415e-235
61.46,6.72825e-231
61.5,2.50964e-226
61.54,8.42859e-222
61.58,2.54877e-217
61.62,6.93968e-213
61.66,1.7013e-208
61.7,3.75539e-204
61.74,7.46385e-200
61.78,1.33568e-195
61.82,2.15217e-191
61.86,3.12236e-187
61.9,4.07871e-183
61.94,4.79728e-179
61.98,5.08042e-175
62.02,4.84438e-171
62.06,4.15919e-167
62.1,3.21524e-163
62.14,2.23795e-159
62.18,1.40256e-155
62.22,7.91449e-152
62.26,4.02123e-148
62.3,1.83962e-144
62.34,7.57756e-141
62.38,2.81037e-137
62.42,9.38495e-134
62.46,2.82184e-130
62.5,7.63952e-127
62.54,1.86223e-123
62.58,4.08725e-120
62.62,8.07726e-117
62.66,1.43724e-113
62.7,2.30265e-110
62.74,3.32169e-107
62.78,4.31443e-104
62.82,5.04568e-101
62.86,5.31313e-98
62.9,5.03748e-95
62.94,4.3004e-92
62.98,3.3055e-89
63.02,2.2877e-86
63.06,1.42559e-83
63.1,7.99875e-81
63.14,4.04094e-78
63.18,1.83813e-75
63.22,7.5284e-73
63.26,2.77627e-70
63.3,9.21838e-68
63.34,2.75601e-65
63.38,7.41888e-63
63.42,1.79817e-60
63.46,3.92423e-58
63.5,7.71101e-56
63.54,1.36427e-53
63.58,2.17332e-51
63.62,3.11731e-49
63.66,4.02596e-47
63.7,4.68157e-45
63.74,4.90169e-43
63.78,4.62098e-41
63.82,3.92242e-39
63.86,2.99784e-37
63.9,2.06298e-35
63.94,1.27825e-33
63.98,7.13127e-32
64.02,3.58222e-30
64.06,1.62021e-28
64.1,6.59815e-27
64.14,2.41939e-25
64.18,7.98774e-24
64.22,2.37451e-22
64.26,6.35561e-21
64.3,1.5317e-19
64.34,3.3237e-18
64.38,6.49388e-17
64.42,1.1424e-15
64.46,1.80954e-14
64.5,2.58076e-13
64.54,3.31407e-12
64.58,3.83185e-11
64.62,3.98922e-10
64.66,3.73939e-09
64.7,3.15607e-08
64.74,2.39842e-07
64.78,1.6411e-06
64.82,1.01107e-05
64.86,5.60865e-05
64.9,0.000280136
64.94,0.00125983
64.98,0.00510138
65.02,0.0185993
65.06,0.0610575
65.1,0.180474
65.14,0.48031
65.18,1.15097
65.22,2.48334
65.26,4.8244
65.3,8.43885
65.34,13.2909
65.38,18.8478
65.42,24.0658
65.46,27.6676
65.5,28.6402
65.54,26.694
65.58,22.4019
65.62,16.9273
65.66,11.5166
65.7,7.05493
65.74,3.8913
65.78,1.93255
65.82,0.864168
65.86,0.347936
65.9,0.126134
65.94,0.0411718
65.98,0.0121004
66.02,0.00320208
66.06,0.000762954
66.1,0.000163681
66.14,3.16176e-05
66.18,5.49912e-06
66.22,8.61174e-07
66.26,1.21429e-07
66.3,1.54165e-08
66.34,1.7623e-09
66.38,1.81389e-10
66.42,1.68102e-11
66.46,1.40271e-12
66.5,1.05389e-13
66.54,7.12947e-15
66.58,4.34261e-16
66.62,2.38165e-17
66.66,1.17608e-18
66.7,5.22915e-20
66.74,2.09342e-21
66.78,7.54598e-23
66.82,2.4491e-24
66.86,7.15701e-26
66.9,1.88317e-27
66.94,4.46149e-29
66.98,9.51707e-31
67.02,1.82793e-32
67.06,3.16118e-34
67.1,4.92234e-36
67.14,6.90124e-38
67.18,8.71194e-40
67.22,9.9023e-42
67.26,1.01342e-43
67.3,9.33851e-46
67.34,7.74814e-48
67.38,5.78829e-50
67.42,3.89347e-52
67.46,2.35806e-54
67.5,1.2859e-56
67.54,6.31381e-59
67.58,2.79132e-61
67.62,1.11112e-63
67.66,3.98239e-66
67.7,1.28517e-68
67.74,3.7343e-71
67.78,9.76994e-74
67.82,2.30148e-76
67.86,4.88153e-79
67.9,9.3226e-82
67.94,1.60307e-84
67.98,2.48198e-87
68.02,3.46002e-90
68.06,4.34302e-93
68.1,4.90837e-96
68.14,4.99478e-99
68.18,4.57645e-102
68.22,3.77549e-105
68.26,2.80447e-108
68.3,1.87569e-111
68.34,1.12955e-114
68.38,6.12466e-118
68.42,2.99014e-121
68.46,1.31442e-124
68.5,5.20247e-128
68.54,1.85403e-131
68.58,5.94921e-135
68.62,1.71883e-138
68.66,4.47137e-142
68.7,1.04732e-145
68.74,2.20879e-149
68.78,4.19431e-153
68.82,7.17132e-157
68.86,1.10401e-160
68.9,1.5303e-164
68.94,1.90991e-168
68.98,2.14627e-172
69.02,2.17164e-176
69.06,1.97845e-180
69.1,1.62291e-184
69.14,1.19866e-188
69.18,7.97137e-193
69.22,4.77311e-197
69.26,2.57337e-201
69.3,1.24922e-205
69.34,5.46015e-210
69.38,2.14884e-214
69.42,7.61444e-219
69.46,2.42943e-223
69.5,6.97917e-228
69.54,1.80524e-232
69.58,4.20437e-237
69.62,8.81655e-242
69.66,1.66467e-246
69.7,2.83004e-251
69.74,4.33202e-256
69.78,5.97062e-261
69.82,7.40939e-266
69.86,8.279e-271
69.9,8.32926e-276
69.94,7.54516e-281
69.98,6.15407e-286
70.02,4.5195e-291
70.06,2.98848e-296
70.1,1.77928e-301
70.14,9.53828e-307
70.18,4.60394e-312
70.22,2.00089e-317
70.26,1.43e-322
70.3,0.0
70.34,0.0
70.38,0.0
70.42,0.0
70.46,0.0
70.5,0.0
70.54,0.0
70.58,0.0
70.62,0.0
70.66,0.0
70.7,0.0
70.74,0.0
70.78,0.0
70.82,0.0
70.86,0.0
70.9,0.0
70.94,0.0
70.98,0.0
71.02,0.0
71.06,0.0
71.1,0.0
71.14,0.0
71.18,0.0
71.22,0.0
71.26,0.0
71.3,0.0
71.34,0.0
71.38,0.0
71.42,0.0
71.46,0.0
71.5,0.0
71.54,0.0
71.58,0.0
71.62,0.0
71.66,0.0
71.7,0.0
71.74,0.0
71.78,0.0
71.82,0.0
71.86,0.0
71.9,0.0
71.94,0.0
71.98,0.0
72.02,0.0
72.06,0.0
72.1,0.0
72.14,0.0
72.18,0.0
72.22,0.0
72.26,0.0
72.3,0.0
72.34,0.0
72.38,0.0
72.42,0.0
72.46,0.0
72.5,0.0
72.54,0.0
72.58,0.0
72.62,0.0
72.66,0.0
72.7,0.0
72.74,0.0
72.78,0.0
72.82,0.0
72.86,0.0
72.9,0.0
72.94,0.0
72.98,0.0
73.02,3e-323
73.06,9.6034e-319
73.1,2.81318e-314
73.14,7.66401e-310
73.18,1.94177e-305
73.22,4.57535e-301
73.26,1.00261e-296
73.3,2.04328e-292
73.34,3.87262e-288
73.38,6.826e-284
73.42,1.11895e-279
73.46,1.70585e-275
73.5,2.41854e-271
73.54,3.18896e-267
73.58,3.91047e-263
73.62,4.45957e-259
73.66,4.72978e-255
73.7,4.66522e-251
73.74,4.27945e-247
73.78,3.65079e-243
73.82,2.89647e-239
73.86,2.13716e-235
73.9,1.46652e-231
73.94,9.35883e-228
73.98,5.55443e-224
74.02,3.06578e-220
74.06,1.57372e-216
74.1,7.51271e-213
74.14,3.33542e-209
74.18,1.37717e-205
74.22,5.28821e-202
74.26,1.88848e-198
74.3,6.27194e-195
74.34,1.9372e-191
74.38,5.56455e-188
74.42,1.48652e-184
74.46,3.69312e-181
74.5,8.53299e-178
74.54,1.83355e-174
74.58,3.66411e-171
74.62,6.80968e-168
74.66,1.17698e-164
74.7,1.89189e-161
74.74,2.82818e-158
74.78,3.93188e-155
74.82,5.08369e-152
74.86,6.1128e-149
74.9,6.83575e-146
74.94,7.10911e-143
74.98,6.87588e-140
75.02,6.1848e-137
75.06,5.17376e-134
75.1,4.02505e-131
75.14,2.91219e-128
75.18,1.95953e-125
75.22,1.22622e-122
75.26,7.1362e-120
75.3,3.86234e-117
75.34,1.9441e-114
75.38,9.10058e-112
75.42,3.9619e-109
75.46,1.60407e-106
75.5,6.03984e-104
75.54,2.11501e-101
75.58,6.88782e-99
75.62,2.0861e-96
75.66,5.87589e-94
75.7,1.5392e-91
75.74,3.74973e-89
75.78,8.49551e-87
75.82,1.79004e-84
75.86,3.50767e-82
75.9,6.39234e-80
75.94,1.08339e-77
75.98,1.70762e-75
76.02,2.50313e-73
76.06,3.4124e-71
76.1,4.32633e-69
76.14,5.10109e-67
76.18,5.59358e-65
76.22,5.70428e-63
76.26,5.40998e-61
76.3,4.77171e-59
76.34,3.91414e-57
76.38,2.98595e-55
76.42,2.11842e-53
76.46,1.39774e-51
76.5,8.57677e-50
76.54,4.89447e-48
76.58,2.59759e-46
76.62,1.28209e-44
76.66,5.88508e-43
76.7,2.51228e-41
76.74,9.97399e-40
76.78,3.68259e-38
76.82,1.26451e-36
76.86,4.03806e-35
76.9,1.19925e-33
76.94,3.31229e-32
76.98,8.50807e-31
77.02,2.03244e-29
77.06,4.51532e-28
77.1,9.32917e-27
77.14,1.79259e-25
77.18,3.20334e-24
77.22,5.32365e-23
77.26,8.2281e-22
77.3,1.1827e-20
77.34,1.58099e-19
77.38,1.96549e-18
77.42,2.27246e-17
77.46,2.44346e-16
77.5,2.44342e-15
77.54,2.27234e-14
77.58,1.96532e-13
77.62,1.5808e-12
77.66,1.18251e-11
77.7,8.22654e-11
77.74,5.32246e-10
77.78,3.20252e-09
77.82,1.79207e-08
77.86,9.32613e-08
77.9,4.51369e-07
77.94,2.03164e-06
77.98,8.50442e-06
78.02,3.31075e-05
78.06,0.000119865
78.1,0.000403591
78.14,0.00126379
78.18,0.00368038
78.22,0.00996766
78.26,0.025106
78.3,0.0588094
78.34,0.128115
78.38,0.259558
78.42,0.489052
78.46,0.856956
78.5,1.39652
78.54,2.1165
78.58,2.98313
78.62,3.91031
78.66,4.76688
78.7,5.40432
78.74,5.69811
78.78,5.58734
78.82,5.09522
78.86,4.32121
78.9,3.40824
78.94,2.5
78.98,1.70543
79.02,1.08196
79.06,0.638367
79.1,0.35028
79.14,0.178749
79.18,0.0848312
79.22,0.0374414
79.26,0.0153685
79.3,0.00586671
79.34,0.00208277
79.38,0.000687659
79.42,0.000211149
79.46,6.02958e-05
79.5,1.60129e-05
79.54,3.9549e-06
79.58,9.08418e-07
79.62,1.94053e-07
79.66,3.85512e-08
79.7,7.12261e-09
79.74,1.22384e-09
79.78,1.95566e-10
79.82,2.90634e-11
79.86,4.01683e-12
79.9,5.16302e-13
79.94,6.17175e-14
79.98,6.86114e-15
80.0,2.22624e-15