File: Data_XRD/XRD_ZnO.csv
20.0395,0.0
20.1002,0.0
20.161,0.0
20.2217,0.0
20.2825,0.0
20.3432,0.0
20.4039,0.0
20.4647,0.0
20.5254,0.0
20.5862,0.0
20.6469,0.0
20.7077,0.0
20.7684,0.0
20.8292,0.0
20.8899,0.0
20.9507,0.0
21.0114,0.0
21.0721,0.0
21.1329,0.0
21.1936,0.0
21.2544,0.0
21.3151,0.0
21.3759,0.0
21.4366,0.0
21.4974,0.0
21.5581,0.0
21.6189,0.0
21.6796,0.0
21.7403,0.0
21.8011,0.0
21.8618,2.08096e-319
21.9226,1.53575e-313
21.9833,9.82415e-308
22.0441,5.55255e-302
22.1048,2.77276e-296
22.1656,1.22336e-290
22.2263,4.76891e-285
22.2871,1.6425e-279
22.3478,4.99822e-274
22.4085,1.34384e-268
22.4693,3.19228e-263
22.53,6.70005e-258
22.5908,1.24245e-252
22.6515,2.03563e-247
22.7123,2.94675e-242
22.773,3.76886e-237
22.8338,4.25891e-232
22.8945,4.25216e-227
22.9553,3.75097e-222
23.016,2.92348e-217
23.0767,2.01316e-212
23.1375,1.22484e-207
23.1982,6.58419e-203
23.259,3.12715e-198
23.3197,1.31225e-193
23.3805,4.86527e-189
23.4412,1.59375e-184
23.502,4.61271e-180
23.5627,1.17954e-175
23.6235,2.66498e-171
23.6842,5.31982e-167
23.7449,9.38258e-163
23.8057,1.46208e-158
23.8664,2.01298e-154
23.9272,2.44868e-150
23.9879,2.63177e-146
24.0487,2.49911e-142
24.1094,2.09674e-138
24.1702,1.55427e-134
24.2309,1.01796e-130
24.2917,5.89059e-127
24.3524,3.01168e-123
24.4131,1.36044e-119
24.4739,5.42968e-116
24.5346,1.91466e-112
24.5954,5.96527e-109
24.6561,1.64207e-105
24.7169,3.99371e-102
24.7776,8.58188e-99
24.8384,1.62934e-95
24.8991,2.73314e-92
24.9599,4.05076e-89
25.0206,5.30435e-86
25.0813,6.13693e-83
25.1421,6.27324e-80
25.2028,5.66573e-77
25.2636,4.52107e-74
25.3243,3.1875e-71
25.3851,1.98555e-68
25.4458,1.09278e-65
25.5066,5.31385e-63
25.5673,2.28301e-60
25.6281,8.66618e-58
25.6888,2.9065e-55
25.7495,8.61263e-53
25.8103,2.25488e-50
25.871,5.21595e-48
25.9318,1.06602e-45
25.9925,1.92496e-43
26.0533,3.07113e-41
26.114,4.3291e-39
26.1748,5.39163e-37
26.2355,5.93287e-35
26.2963,5.76809e-33
26.357,4.95475e-31
26.4177,3.7604e-29
26.4785,2.52155e-27
26.5392,1.49391e-25
26.6,7.81995e-24
26.6607,3.61664e-22
26.7215,1.47785e-20
26.7822,5.33551e-19
26.843,1.70194e-17
26.9037,4.79663e-16
26.9645,1.1944e-14
27.0252,2.62776e-13
27.0859,5.10793e-12
27.1467,8.77255e-11
27.2074,1.33116e-09
27.2682,1.78466e-08
27.3289,2.11399e-07
27.3897,2.21245e-06
27.4504,2.04582e-05
27.5112,0.000167141
27.5719,0.00120648
27.6327,0.00769452
27.6934,0.0433575
27.7541,0.215859
27.8149,0.949505
27.8756,3.69018
27.9364,12.6713
27.9971,38.4428
28.0579,103.046
28.1186,244.046
28.1794,510.663
28.2401,944.102
28.3009,1542.15
28.3616,2225.64
28.4223,2837.97
28.4831,3197.29
28.5438,3182.57
28.6046,2798.97
28.6653,2174.9
28.7261,1493.15
28.7868,905.712
28.8476,485.399
28.9083,229.842
28.9691,96.1577
29.0298,35.5435
29.0905,11.608
29.1513,3.3495
29.212,0.853932
29.2728,0.192349
29.3335,0.0382805
29.3943,0.00673114
29.455,0.00104573
29.5158,0.000143541
29.5765,1.74083e-05
29.6373,1.86533e-06
29.698,1.76595e-07
29.7587,1.47715e-08
29.8195,1.09167e-09
29.8802,7.12823e-11
29.941,4.11239e-12
30.0017,2.09618e-13
30.0625,9.44032e-15
30.1232,3.75635e-16
30.184,1.32059e-17
30.2447,4.10198e-19
30.3055,1.12575e-20
30.3662,2.72967e-22
30.4269,5.84793e-24
30.4877,1.10692e-25
30.5484,1.8512e-27
30.6092,2.73536e-29
30.6699,3.64652e-31
30.7307,4.58222e-31
30.7914,2.45551e-29
30.8522,1.19353e-27
30.9129,5.21476e-26
30.9737,2.04805e-24
31.0344,7.23024e-23
31.0951,2.29441e-21
31.1559,6.5448e-20
31.2166,1.67814e-18
31.2774,3.86781e-17
31.3381,8.01325e-16
31.3989,1.49231e-14
31.4596,2.49813e-13
31.5204,3.75905e-12
31.5811,5.08449e-11
31.6419,6.18192e-10
31.7026,6.75624e-09
31.7633,6.63733e-08
31.8241,5.86121e-07
31.8848,4.65252e-06
31.9456,3.31967e-05
32.0063,0.000212916
32.0671,0.00122752
32.1278,0.00636143
32.1886,0.0296338
32.2493,0.124087
32.3101,0.467058
32.3708,1.58024
32.4315,4.80595
32.4923,13.1384
32.553,32.286
32.6138,71.3166
32.6745,141.603
32.7353,252.733
32.796,405.47
32.8568,584.736
32.9175,757.999
32.9783,883.248
33.039,925.132
33.0997,871.025
33.1605,737.164
33.2212,560.795
33.282,383.487
33.3427,235.723
33.4035,130.245
33.4642,64.6884
33.525,28.88
33.5857,11.5898
33.6465,4.1808
33.7072,1.35566
33.7679,0.395136
33.8287,0.103526
33.8894,0.0243814
33.9502,0.00516148
34.0109,0.000982192
34.0717,0.000168006
34.1324,2.58321e-05
34.1932,3.57026e-06
34.2539,4.43555e-07
34.3147,4.95337e-08
34.3754,4.97234e-09
34.4361,4.4867e-10
34.4969,3.63915e-11
34.5576,2.65325e-12
34.6184,1.73886e-13
34.6791,1.02437e-14
34.7399,5.42441e-16
34.8006,2.582e-17
34.8614,1.10476e-18
34.9221,4.24897e-20
34.9829,1.46895e-21
35.0436,4.56495e-23
35.1043,1.27518e-24
35.1651,3.20195e-26
35.2258,7.22707e-28
35.2866,1.46628e-29
35.3473,2.6741e-31
35.4081,4.38374e-33
35.4688,6.4598e-35
35.5296,8.55655e-37
35.5903,1.01879e-38
35.6511,1.09038e-40
35.7118,1.049e-42
35.7725,9.07155e-45
35.8333,7.05169e-47
35.894,4.92732e-49
35.9548,3.09482e-51
36.0155,1.74729e-53
36.0763,8.86752e-56
36.137,4.04525e-58
36.1978,1.6588e-60
36.2585,6.11436e-63
36.3193,2.02588e-65
36.38,6.03366e-68
36.4407,1.61531e-70
36.5015,3.8872e-73
36.5622,8.40861e-76
36.623,1.635e-78
36.6837,2.85771e-81
36.7445,4.48977e-84
36.8052,6.34069e-87
36.866,8.04925e-90
36.9267,9.18504e-93
36.9875,9.42134e-96
37.0482,8.68661e-99
37.1089,7.19937e-102
37.1697,5.36346e-105
37.2304,3.59172e-108
37.2912,2.16205e-111
37.3519,1.16986e-114
37.4127,5.68998e-118
37.4734,2.48767e-121
37.5342,9.77645e-125
37.5949,3.45363e-128
37.6557,1.09667e-131
37.7164,3.13029e-135
37.7771,8.03153e-139
37.8379,1.85233e-142
37.8986,3.84012e-146
37.9594,7.15611e-150
38.0201,1.19872e-153
38.0809,1.80493e-157
38.1416,2.44294e-161
38.2024,2.97215e-165
38.2631,3.25039e-169
38.3239,3.19526e-173
38.3846,2.82347e-177
38.4453,2.24267e-181
38.5061,1.60124e-185
38.5668,1.02766e-189
38.6276,5.92862e-194
38.6883,3.07441e-198
38.7491,1.4331e-202
38.8098,6.00479e-207
38.8706,2.26165e-211
38.9313,7.65701e-216
38.9921,2.33023e-220
39.0528,6.3745e-225
39.1135,1.56747e-229
39.1743,3.46464e-234
39.235,6.88372e-239
39.2958,1.2294e-243
39.3565,1.97366e-248
39.4173,2.84811e-253
39.478,3.69443e-258
39.5388,4.30769e-263
39.5995,4.51492e-268
39.6603,3.23076e-269
39.721,5.61183e-265
39.7817,9.02837e-261
39.8425,1.34513e-256
39.9032,1.85594e-252
39.964,2.37145e-248
40.0247,2.80615e-244
40.0855,3.07508e-240
40.1462,3.12068e-236
40.207,2.93286e-232
40.2677,2.55259e-228
40.3285,2.0574e-224
40.3892,1.53569e-220
40.4499,1.06154e-216
40.5107,6.79547e-213
40.5714,4.02855e-209
40.6322,2.2117e-205
40.6929,1.12448e-201
40.7537,5.29452e-198
40.8144,2.3086e-194
40.8752,9.3222e-191
40.9359,3.48607e-187
40.9967,1.20727e-183
41.0574,3.87184e-180
41.1181,1.14995e-176
41.1789,3.16293e-173
41.2396,8.05652e-170
41.3004,1.90044e-166
41.3611,4.15153e-163
41.4219,8.39867e-160
41.4826,1.57348e-156
41.5434,2.72998e-153
41.6041,4.38638e-150
41.6649,6.52681e-147
41.7256,8.9938e-144
41.7863,1.14772e-140
41.8471,1.35635e-137
41.9078,1.48443e-134
41.9686,1.50451e-131
42.0293,1.41214e-128
42.0901,1.22746e-125
42.1508,9.88069e-123
42.2116,7.3657e-120
42.2723,5.08498e-117
42.3331,3.25097e-114
42.3938,1.92479e-111
42.4545,1.05536e-108
42.5153,5.35883e-106
42.576,2.51991e-103
42.6368,1.09736e-100
42.6975,4.42547e-98
42.7583,1.6528e-95
42.819,5.71645e-93
42.8798,1.83097e-90
42.9405,5.43107e-88
43.0013,1.49189e-85
43.062,3.79522e-83
43.1227,8.94097e-81
43.1835,1.95065e-78
43.2442,3.94116e-76
43.305,7.37422e-74
43.3657,1.27778e-71
43.4265,2.05042e-69
43.4872,3.04705e-67
43.548,4.19338e-65
43.6087,5.34436e-63
43.6695,6.30777e-61
43.7302,6.89452e-59
43.7909,6.97879e-57
43.8517,6.54191e-55
43.9124,5.67906e-53
43.9732,4.56559e-51
44.0339,3.39911e-49
44.0947,2.34359e-47
44.1554,1.4964e-45
44.2162,8.84828e-44
44.2769,4.84529e-42
44.3377,2.45713e-40
44.3984,1.15394e-38
44.4591,5.01868e-37
44.5199,2.02135e-35
44.5806,7.53951e-34
44.6414,2.6043e-32
44.7021,8.33084e-31
44.7629,2.46793e-29
44.8236,6.77059e-28
44.8844,1.72015e-26
44.9451,4.04722e-25
45.0059,8.81848e-24
45.0666,1.77942e-22
45.1273,3.32515e-21
45.1881,5.75431e-20
45.2488,9.22194e-19
45.3096,1.36867e-17
45.3703,1.88116e-16
45.4311,2.39441e-15
45.4918,2.82241e-14
45.5526,3.08098e-13
45.6133,3.11463e-12
45.6741,2.9159e-11
45.7348,2.52805e-10
45.7955,2.02978e-09
45.8563,1.50924e-08
45.917,1.03924e-07
45.9778,6.62707e-07
46.0385,3.91359e-06
46.0993,2.14031e-05
46.16,0.000108399
46.2208,0.000508423
46.2815,0.00220837
46.3423,0.00888311
46.403,0.0330908
46.4637,0.114156
46.5245,0.3647
46.5852,1.079
46.646,2.95635
46.7067,7.50134
46.7675,17.6266
46.8282,38.3573
46.889,77.299
46.9497,144.261
47.0105,249.328
47.0712,399.063
47.1319,591.508
47.1927,811.946
47.2534,1032.15
47.3142,1215.08
47.3749,1324.69
47.4357,1337.44
47.4964,1250.49
47.5572,1082.77
47.6179,868.24
47.6787,644.749
47.7394,443.394
47.8001,282.382
47.8609,166.545
47.9216,90.9653
47.9824,46.0116
48.0431,21.5529
48.1039,9.34962
48.1646,3.75603
48.2254,1.39737
48.2861,0.481442
48.3469,0.153612
48.4076,0.0453891
48.4683,0.0124202
48.5291,0.00314739
48.5898,0.000738623
48.6506,0.000160525
48.7113,3.2308e-05
48.7721,6.0218e-06
48.8328,1.03942e-06
48.8936,1.66151e-07
48.9543,2.45959e-08
49.0151,3.37187e-09
49.0758,4.28082e-10
49.1365,5.03304e-11
49.1973,5.48003e-12
49.258,5.52565e-13
49.3188,5.15979e-14
49.3795,4.46198e-15
49.4403,3.57332e-16
49.501,2.65012e-17
49.5618,1.82014e-18
49.6225,1.15769e-19
49.6833,6.81915e-21
49.744,3.71976e-22
49.8047,1.87909e-23
49.8655,8.7908e-25
49.9262,3.80853e-26
49.987,1.52804e-27
50.0477,5.67752e-29
50.1085,1.95358e-30
50.1692,6.22519e-32
50.23,1.83705e-33
50.2907,5.02041e-35
50.3515,1.27059e-36
50.4122,2.97795e-38
50.4729,6.46366e-40
50.5337,1.29923e-41
50.5944,2.41849e-43
50.6552,4.16918e-45
50.7159,6.65585e-47
50.7767,9.84022e-49
50.8374,1.34727e-50
50.8982,1.70825e-52
50.9589,2.00585e-54
51.0197,2.18118e-56
51.0804,2.19651e-58
51.1411,2.04844e-60
51.2019,1.76913e-62
51.2626,1.41497e-64
51.3234,1.04804e-66
51.3841,7.18889e-69
51.4449,4.56659e-71
51.5056,2.68639e-73
51.5664,1.46387e-75
51.6271,5.21043e-77
51.6879,5.27705e-75
51.7486,5.84597e-73
51.8093,6.08012e-71
51.8701,5.93685e-69
51.9308,5.44237e-67
51.9916,4.68389e-65
52.0523,3.78455e-63
52.1131,2.87084e-61
52.1738,2.04452e-59
52.2346,1.36698e-57
52.2953,8.58067e-56
52.3561,5.05671e-54
52.4168,2.7977e-52
52.4775,1.45319e-50
52.5383,7.08653e-49
52.599,3.24438e-47
52.6598,1.39449e-45
52.7205,5.62717e-44
52.7813,2.13182e-42
52.842,7.58228e-41
52.9028,2.53184e-39
52.9635,7.93708e-38
53.0243,2.336e-36
53.085,6.45466e-35
53.1457,1.67441e-33
53.2065,4.07791e-32
53.2672,9.32397e-31
53.328,2.00149e-29
53.3887,4.03359e-28
53.4495,7.63166e-27
53.5102,1.35561e-25
53.571,2.26067e-24
53.6317,3.53938e-23
53.6925,5.20242e-22
53.7532,7.17913e-21
53.8139,9.30091e-20
53.8747,1.13127e-18
53.9354,1.29181e-17
53.9962,1.38489e-16
54.0569,1.39386e-15
54.1177,1.31708e-14
54.1784,1.16841e-13
54.2392,9.73112e-13
54.2999,7.60886e-12
54.3607,5.58552e-11
54.4214,3.84943e-10
54.4821,2.49067e-09
54.5429,1.51295e-08
54.6036,8.62819e-08
54.6644,4.61959e-07
54.7251,2.32207e-06
54.7859,1.09581e-05
54.8466,4.85491e-05
54.9074,0.000201937
54.9681,0.000788566
55.0289,0.002891
55.0896,0.00995055
55.1503,0.0321539
55.2111,0.0975455
55.2718,0.277823
55.3326,0.742879
55.3933,1.8649
55.4541,4.39522
55.5148,9.7251
55.5756,20.202
55.6363,39.3988
55.6971,72.1373
55.7578,124.001
55.8185,200.114
55.8793,303.191
55.94,431.265
56.0008,575.917
56.0615,722.043
56.1223,849.874
56.183,939.147
56.2438,974.317
56.3045,948.976
56.3653,867.756
56.426,744.952
56.4867,600.408
56.5475,454.31
56.6082,322.735
56.669,215.242
56.7297,134.771
56.7905,79.2236
56.8512,43.722
56.912,22.6534
56.9727,11.0193
57.0335,5.03225
57.0942,2.15754
57.1549,0.868445
57.2157,0.328182
57.2764,0.116434
57.3372,0.0387855
57.3979,0.0121421
57.4587,0.00361087
57.5194,0.00114428
57.5802,0.000754605
57.6409,0.00152881
57.7017,0.00411498
57.7624,0.0109377
57.8231,0.0278138
57.8839,0.0674854
57.9446,0.1562
58.0054,0.344881
58.0661,0.726392
58.1269,1.45945
58.1876,2.79717
58.2484,5.11406
58.3091,8.91922
58.3699,14.8389
58.4306,23.5501
58.4913,35.6532
58.5521,51.4896
58.6128,70.934
58.6736,93.2189
58.7343,116.861
58.7951,139.749
58.8558,159.42
58.9166,173.48
58.9773,180.084
59.0381,178.325
59.0988,168.448
59.1595,151.787
59.2203,130.472
59.281,106.983
59.3418,83.6807
59.4025,62.4385
59.4633,44.442
59.524,30.1752
59.5848,19.5444
59.6455,12.0756
59.7063,7.11719
59.767,4.00151
59.8277,2.14612
59.8885,1.09799
59.9492,0.535869
60.01,0.249479
60.0707,0.110796
60.1315,0.0469383
60.1922,0.0189691
60.253,0.00731273
60.3137,0.00268923
60.3745,0.000943389
60.4352,0.000315696
60.4959,0.000100777
60.5567,3.0688e-05
60.6174,8.91438e-06
60.6782,2.47018e-06
60.7389,6.5295e-07
60.7997,1.64644e-07
60.8604,3.9603e-08
60.9212,9.08707e-09
60.9819,1.989e-09
61.0427,4.15298e-10
61.1034,8.27181e-11
61.1641,1.57165e-11
61.2249,2.84856e-12
61.2856,4.92504e-13
61.3464,8.12287e-14
61.4071,1.27798e-14
61.4679,1.91802e-15
61.5286,2.74597e-16
61.5894,3.7502e-17
61.6501,4.88571e-18
61.7109,6.07178e-19
61.7716,7.19811e-20
61.8323,8.14022e-21
61.8931,8.78149e-22
61.9538,9.03682e-23
62.0146,8.8711e-24
62.0753,8.30718e-25
62.1361,7.4207e-26
62.1968,6.32341e-27
62.2576,5.14011e-28
62.3183,3.98573e-29
62.3791,2.94821e-30
62.4398,2.08029e-31
62.5005,1.40024e-32
62.5613,8.99079e-34
62.622,5.5069e-35
62.6828,3.2176e-36
62.7435,1.79337e-37
62.8043,9.53509e-39
62.865,4.83641e-40
62.9258,2.36389e-41
62.9865,2.79297e-42
63.0473,1.19934e-41
63.108,8.17516e-41
63.1687,5.4901e-40
63.2295,3.61828e-39
63.2902,2.34019e-38
63.351,1.48535e-37
63.4117,9.25197e-37
63.4725,5.65544e-36
63.5332,3.39256e-35
63.594,1.99717e-34
63.6547,1.1538e-33
63.7155,6.54145e-33
63.7762,3.63953e-32
63.8369,1.98721e-31
63.8977,1.0648e-30
63.9584,5.59917e-30
64.0192,2.88938e-29
64.0799,1.46324e-28
64.1407,7.27196e-28
64.2014,3.54663e-27
64.2622,1.69749e-26
64.3229,7.97312e-26
64.3837,3.67515e-25
64.4444,1.66246e-24
64.5051,7.37996e-24
64.5659,3.21502e-23
64.6266,1.37449e-22
64.6874,5.76671e-22
64.7481,2.37433e-21
64.8089,9.59363e-21
64.8696,3.8041e-20
64.9304,1.48029e-19
64.9911,5.65291e-19
65.0519,2.11848e-18
65.1126,7.79119e-18
65.1733,2.81197e-17
65.2341,9.95968e-17
65.2948,3.46185e-16
65.3556,1.18086e-15
65.4163,3.9529e-15
65.4771,1.29856e-14
65.5378,4.18634e-14
65.5986,1.32445e-13
65.6593,4.1121e-13
65.7201,1.25291e-12
65.7808,3.7463e-12
65.8415,1.0993e-11
65.9023,3.16558e-11
65.963,8.94582e-11
66.0238,2.48093e-10
66.0845,6.75206e-10
66.1453,1.80337e-09
66.206,4.72676e-09
66.2668,1.21582e-08
66.3275,3.06903e-08
66.3883,7.60258e-08
66.449,1.8482e-07
66.5097,4.40925e-07
66.5705,1.0323e-06
66.6312,2.3718e-06
66.692,5.34783e-06
66.7527,1.18332e-05
66.8135,2.56955e-05
66.8742,5.47569e-05
66.935,0.000114511
66.9957,0.000235009
67.0565,0.000473314
67.1172,0.000935496
67.1779,0.00181452
67.2387,0.0034539
67.2994,0.00645185
67.3602,0.0118273
67.4209,0.0212774
67.4817,0.0375643
67.5424,0.0650821
67.6032,0.110656
67.6639,0.184636
67.7247,0.302333
67.7854,0.485827
67.8461,0.766135
67.9069,1.18565
67.9676,1.80068
68.0284,2.68376
68.0891,3.92535
68.1499,5.63431
68.2106,7.93653
68.2714,10.9711
68.3321,14.8831
68.3929,19.8138
68.4536,25.8862
68.5143,33.1891
68.5751,41.7592
68.6358,51.5627
68.6966,62.4808
68.7573,74.2995
68.8181,86.7067
68.8788,99.2994
68.9396,111.601
69.0003,123.089
69.0611,133.228
69.1218,141.514
69.1825,147.514
69.2433,150.901
69.304,151.489
69.3648,149.244
69.4255,144.291
69.4863,136.902
69.547,127.47
69.6078,116.476
69.6685,104.445
69.7293,91.9117
69.79,79.3743
69.8507,67.2693
69.9115,55.9476
69.9722,45.664
70.033,36.5758
70.0937,28.7502
70.1545,22.1777
70.2152,16.7888
70.276,12.4724
70.3367,9.093
70.3975,6.50568
70.4582,4.56779
70.5189,3.14737
70.5797,2.12822
70.6404,1.41225
70.7012,0.91968
70.7619,0.587744
70.8227,0.368611
70.8834,0.226869
70.9442,0.137028
71.0049,0.0812216
71.0657,0.0472456
71.1264,0.0269699
71.1871,0.0151086
71.2479,0.00830611
71.3086,0.00448124
71.3694,0.00237261
71.4301,0.00123277
71.4909,0.000628588
71.5516,0.000314541
71.6124,0.00015446
71.6731,7.4436e-05
71.7339,3.52028e-05
71.7946,1.6338e-05
71.8553,7.4413e-06
71.9161,3.32603e-06
71.9768,1.45892e-06
72.0376,6.28005e-07
72.0983,2.65292e-07
72.1591,1.09979e-07
72.2198,4.47432e-08
72.2806,1.78636e-08
72.3413,6.99908e-09
72.4021,2.69116e-09
72.4628,1.01547e-09
72.5235,3.76027e-10
72.5843,1.36647e-10
72.645,4.87315e-11
72.7058,1.70548e-11
72.7665,5.85749e-12
72.8273,1.97426e-12
72.888,6.53016e-13
72.9488,2.11972e-13
73.0095,6.75379e-14
73.0703,2.11792e-14
73.131,6.78645e-15
73.1917,3.27372e-15
73.2525,6.07226e-15
73.3132,2.23981e-14
73.374,8.76707e-14
73.4347,3.36558e-13
73.4955,1.2596e-12
73.5562,4.59397e-12
73.617,1.63271e-11
73.6777,5.6545e-11
73.7385,1.9083e-10
73.7992,6.27571e-10
73.8599,2.01115e-09
73.9207,6.28049e-09
73.9814,1.9112e-08
74.0422,5.66742e-08
74.1029,1.63768e-07
74.1637,4.61148e-07
74.2244,1.26536e-06
74.2852,3.38342e-06
74.3459,8.81583e-06
74.4067,2.23839e-05
74.4674,5.53825e-05
74.5281,0.000133529
74.5889,0.000313721
74.6496,0.000718253
74.7104,0.00160242
74.7711,0.00348371
74.8319,0.00738027
74.8926,0.0152359
74.9534,0.0306499
75.0141,0.0600837
75.0749,0.114775
75.1356,0.213652
75.1963,0.387552
75.2571,0.685045
75.3178,1.17998
75.3786,1.98058
75.4393,3.2395
75.5001,5.16333
75.5608,8.01947
75.6216,12.1375
75.6823,17.9009
75.7431,25.7269
75.8038,36.0302
75.8645,49.1711
75.9253,65.3912
75.986,84.7411
76.0468,107.012
76.1075,131.686
76.1683,157.911
76.229,184.522
76.2898,210.112
76.3505,233.141
76.4113,252.088
76.472,265.613
76.5327,272.718
76.5935,272.863
76.6542,266.035
76.715,252.755
76.7757,234.006
76.8365,211.115
76.8972,185.6
76.958,159.004
77.0187,132.742
77.0795,107.991
77.1402,85.6196
77.2009,66.1626
77.2617,49.846
77.3224,36.6373
77.3832,26.3152
77.4439,18.5434
77.5047,12.9387
77.5654,9.12661
77.6262,6.78169
77.6869,5.65239
77.7477,5.57301
77.8084,6.46499
77.8691,8.33035
77.9299,11.2391
77.9906,15.312
78.0514,20.6987
78.1121,27.5529
78.1729,36.0029
78.2336,46.1216
78.2944,57.8961
78.3551,71.2011
78.4159,85.779
78.4766,101.232
78.5373,117.03
78.5981,132.53
78.6588,147.016
78.7196,159.754
78.7803,170.05
78.8411,177.312
78.9018,181.106
78.9626,181.203
79.0233,177.597
79.0841,170.506
79.1448,160.354
79.2055,147.726
79.2663,133.312
79.327,117.847
79.3878,102.047
79.4485,86.5611
79.5093,71.925
79.57,58.5427
79.6308,46.6769
79.6915,36.4558
79.7523,27.8912
79.813,20.9028
79.8737,15.3454
79.9345,11.0354
79.9952,7.77378
80.056,5.3643
80.1167,3.62602
80.1775,2.40096
80.2382,1.5573
80.299,0.989462
80.3597,0.615829
80.4205,0.375455
80.4812,0.224229
80.5419,0.131178
80.6027,0.0751739
80.6634,0.0421996
80.7242,0.0232053
80.7849,0.0124997
80.8457,0.00659554
80.9064,0.00340907
80.9672,0.00172607
81.0279,0.000856084
81.0887,0.000415921
81.1494,0.000197943
81.2101,9.22798e-05
81.2709,4.21414e-05
81.3316,1.88516e-05
81.3924,8.26079e-06
81.4531,3.54595e-06
81.5139,1.491e-06
81.5746,6.14131e-07
81.6354,2.47788e-07
81.6961,9.79341e-08
81.7366,5.21423e-08