File: Data_XRD/ZnO.csv
19.999,237
20.0597,255
20.1205,223
20.1812,249
20.242,209
20.3027,210
20.3634,206
20.4242,183
20.4849,208
20.5457,216
20.6064,198
20.6672,215
20.7279,189
20.7887,230
20.8494,197
20.9102,198
20.9709,213
21.0316,196
21.0924,190
21.1531,215
21.2139,178
21.2746,207
21.3354,212
21.3961,196
21.4569,219
21.5176,195
21.5784,219
21.6391,206
21.6998,180
21.7606,185
21.8213,237
21.8821,201
21.9428,197
22.0036,194
22.0643,201
22.1251,214
22.1858,205
22.2466,216
22.3073,210
22.368,194
22.4288,191
22.4895,192
22.5503,186
22.611,193
22.6718,221
22.7325,184
22.7933,152
22.854,198
22.9148,234
22.9755,208
23.0362,211
23.097,208
23.1577,185
23.2185,218
23.2792,197
23.34,177
23.4007,202
23.4615,214
23.5222,192
23.583,180
23.6437,210
23.7044,177
23.7652,183
23.8259,185
23.8867,196
23.9474,214
24.0082,202
24.0689,189
24.1297,217
24.1904,175
24.2512,193
24.3119,196
24.3726,203
24.4334,195
24.4941,193
24.5549,196
24.6156,183
24.6764,179
24.7371,188
24.7979,190
24.8586,182
24.9194,193
24.9801,189
25.0408,190
25.1016,182
25.1623,179
25.2231,215
25.2838,178
25.3446,211
25.4053,191
25.4661,180
25.5268,209
25.5876,233
25.6483,175
25.709,228
25.7698,198
25.8305,200
25.8913,189
25.952,206
26.0128,195
26.0735,191
26.1343,208
26.195,188
26.2558,211
26.3165,204
26.3772,208
26.438,232
26.4987,202
26.5595,225
26.6202,176
26.681,214
26.7417,215
26.8025,214
26.8632,198
26.924,235
26.9847,206
27.0454,202
27.1062,221
27.1669,224
27.2277,218
27.2884,213
27.3492,239
27.4099,251
27.4707,223
27.5314,274
27.5922,314
27.6529,289
27.7136,323
27.7744,348
27.8351,348
27.8959,402
27.9566,470
28.0174,530
28.0781,594
28.1389,704
28.1996,934
28.2604,1333
28.3211,1766
28.3818,2502
28.4426,3260
28.5033,3639
28.5641,3437
28.6248,2730
28.6856,1979
28.7463,1401
28.8071,1023
28.8678,721
28.9286,586
28.9893,475
29.05,417
29.1108,414
29.1715,339
29.2323,274
29.293,305
29.3538,315
29.4145,300
29.4753,244
29.536,254
29.5968,269
29.6575,287
29.7182,257
29.779,228
29.8397,264
29.9005,262
29.9612,242
30.022,231
30.0827,224
30.1435,224
30.2042,226
30.265,218
30.3257,207
30.3864,206
30.4472,211
30.5079,239
30.5687,242
30.6294,214
30.6902,230
30.7509,205
30.8117,230
30.8724,208
30.9332,220
30.9939,239
31.0546,216
31.1154,228
31.1761,207
31.2369,222
31.2976,219
31.3584,223
31.4191,208
31.4799,230
31.5406,224
31.6014,224
31.6621,190
31.7228,194
31.7836,247
31.8443,177
31.9051,216
31.9658,232
32.0266,206
32.0873,236
32.1481,214
32.2088,234
32.2696,267
32.3303,219
32.391,239
32.4518,262
32.5125,294
32.5733,295
32.634,370
32.6948,402
32.7555,464
32.8163,591
32.877,793
32.9378,936
32.9985,1111
33.0592,1170
33.12,1034
33.1807,854
33.2415,623
33.3022,459
33.363,376
33.4237,332
33.4845,286
33.5452,257
33.606,278
33.6667,264
33.7274,234
33.7882,229
33.8489,230
33.9097,204
33.9704,200
34.0312,197
34.0919,208
34.1527,203
34.2134,227
34.2742,220
34.3349,200
34.3956,201
34.4564,190
34.5171,192
34.5779,193
34.6386,207
34.6994,220
34.7601,188
34.8209,222
34.8816,186
34.9424,193
35.0031,206
35.0638,210
35.1246,216
35.1853,233
35.2461,216
35.3068,216
35.3676,197
35.4283,182
35.4891,182
35.5498,179
35.6106,185
35.6713,167
35.7321,189
35.7928,198
35.8535,182
35.9143,196
35.975,196
36.0358,187
36.0965,183
36.1573,205
36.218,163
36.2788,178
36.3395,182
36.4003,181
36.461,195
36.5217,174
36.5825,213
36.6432,178
36.704,214
36.7647,175
36.8255,189
36.8862,181
36.947,185
37.0077,171
37.0685,175
37.1292,180
37.1899,179
37.2507,197
37.3114,186
37.3722,204
37.4329,185
37.4937,158
37.5544,180
37.6152,202
37.6759,179
37.7367,178
37.7974,208
37.8581,169
37.9189,204
37.9796,179
38.0404,186
38.1011,192
38.1619,202
38.2226,179
38.2834,192
38.3441,203
38.4049,177
38.4656,195
38.5263,195
38.5871,175
38.6478,175
38.7086,183
38.7693,205
38.8301,198
38.8908,191
38.9516,169
39.0123,173
39.0731,199
39.1338,167
39.1945,186
39.2553,185
39.316,185
39.3768,183
39.4375,192
39.4983,182
39.559,202
39.6198,176
39.6805,165
39.7413,168
39.802,171
39.8627,188
39.9235,180
39.9842,204
40.045,173
40.1057,173
40.1665,187
40.2272,186
40.288,178
40.3487,177
40.4095,181
40.4702,172
40.5309,185
40.5917,168
40.6524,168
40.7132,196
40.7739,175
40.8347,188
40.8954,164
40.9562,172
41.0169,193
41.0777,195
41.1384,183
41.1991,193
41.2599,169
41.3206,193
41.3814,199
41.4421,196
41.5029,188
41.5636,187
41.6244,208
41.6851,163
41.7459,201
41.8066,214
41.8673,174
41.9281,185
41.9888,181
42.0496,204
42.1103,213
42.1711,186
42.2318,214
42.2926,207
42.3533,232
42.4141,196
42.4748,223
42.5355,241
42.5963,213
42.657,195
42.7178,201
42.7785,204
42.8393,183
42.9,230
42.9608,181
43.0215,188
43.0823,195
43.143,192
43.2037,193
43.2645,176
43.3252,198
43.386,168
43.4467,184
43.5075,187
43.5682,207
43.629,195
43.6897,169
43.7505,194
43.8112,184
43.8719,212
43.9327,205
43.9934,190
44.0542,195
44.1149,180
44.1757,175
44.2364,180
44.2972,178
44.3579,181
44.4187,198
44.4794,195
44.5401,173
44.6009,174
44.6616,165
44.7224,204
44.7831,200
44.8439,193
44.9046,203
44.9654,168
45.0261,204
45.0869,184
45.1476,180
45.2083,155
45.2691,184
45.3298,176
45.3906,186
45.4513,206
45.5121,204
45.5728,180
45.6336,193
45.6943,216
45.7551,198
45.8158,220
45.8765,210
45.9373,185
45.998,192
46.0588,215
46.1195,219
46.1803,208
46.241,213
46.3018,232
46.3625,209
46.4233,196
46.484,216
46.5447,249
46.6055,238
46.6662,271
46.727,295
46.7877,296
46.8485,349
46.9092,352
46.97,441
47.0307,515
47.0915,627
47.1522,785
47.2129,1032
47.2737,1202
47.3344,1519
47.3952,1566
47.4559,1487
47.5167,1431
47.5774,1134
47.6382,928
47.6989,670
47.7597,543
47.8204,474
47.8811,375
47.9419,374
48.0026,277
48.0634,282
48.1241,262
48.1849,254
48.2456,249
48.3064,237
48.3671,251
48.4279,262
48.4886,223
48.5493,227
48.6101,189
48.6708,204
48.7316,232
48.7923,205
48.8531,200
48.9138,191
48.9746,206
49.0353,178
49.0961,214
49.1568,223
49.2175,211
49.2783,182
49.339,194
49.3998,194
49.4605,188
49.5213,184
49.582,197
49.6428,210
49.7035,163
49.7643,187
49.825,188
49.8857,205
49.9465,184
50.0072,158
50.068,176
50.1287,166
50.1895,164
50.2502,186
50.311,209
50.3717,225
50.4325,198
50.4932,193
50.5539,183
50.6147,177
50.6754,178
50.7362,167
50.7969,189
50.8577,192
50.9184,207
50.9792,223
51.0399,171
51.1007,211
51.1614,177
51.2221,163
51.2829,213
51.3436,187
51.4044,193
51.4651,201
51.5259,195
51.5866,198
51.6474,175
51.7081,184
51.7689,179
51.8296,194
51.8903,213
51.9511,185
52.0118,200
52.0726,201
52.1333,181
52.1941,212
52.2548,188
52.3156,184
52.3763,173
52.4371,181
52.4978,201
52.5585,190
52.6193,187
52.68,196
52.7408,201
52.8015,209
52.8623,189
52.923,180
52.9838,186
53.0445,181
53.1053,182
53.166,196
53.2267,187
53.2875,174
53.3482,206
53.409,205
53.4697,175
53.5305,198
53.5912,183
53.652,213
53.7127,178
53.7735,189
53.8342,196
53.8949,174
53.9557,193
54.0164,205
54.0772,191
54.1379,180
54.1987,179
54.2594,177
54.3202,185
54.3809,206
54.4417,202
54.5024,225
54.5631,196
54.6239,232
54.6846,224
54.7454,200
54.8061,219
54.8669,227
54.9276,216
54.9884,225
55.0491,229
55.1099,205
55.1706,229
55.2313,231
55.2921,235
55.3528,227
55.4136,223
55.4743,238
55.5351,298
55.5958,274
55.6566,284
55.7173,349
55.7781,378
55.8388,450
55.8995,521
55.9603,654
56.021,780
56.0818,943
56.1425,1061
56.2033,1206
56.264,1239
56.3248,1115
56.3855,989
56.4463,857
56.507,716
56.5677,561
56.6285,453
56.6892,395
56.75,314
56.8107,321
56.8715,298
56.9322,265
56.993,254
57.0537,251
57.1145,242
57.1752,229
57.2359,228
57.2967,208
57.3574,231
57.4182,203
57.4789,244
57.5397,223
57.6004,217
57.6612,198
57.7219,226
57.7827,234
57.8434,212
57.9041,202
57.9649,225
58.0256,227
58.0864,233
58.1471,201
58.2079,195
58.2686,220
58.3294,194
58.3901,208
58.4509,207
58.5116,225
58.5723,255
58.6331,248
58.6938,244
58.7546,311
58.8153,317
58.8761,338
58.9368,336
58.9976,404
59.0583,376
59.1191,334
59.1798,285
59.2405,307
59.3013,276
59.362,253
59.4228,233
59.4835,229
59.5443,217
59.605,200
59.6658,207
59.7265,196
59.7873,202
59.848,208
59.9087,181
59.9695,208
60.0302,205
60.091,191
60.1517,213
60.2125,188
60.2732,200
60.334,192
60.3947,210
60.4555,227
60.5162,189
60.5769,194
60.6377,180
60.6984,188
60.7592,171
60.8199,194
60.8807,189
60.9414,198
61.0022,198
61.0629,170
61.1237,208
61.1844,207
61.2451,175
61.3059,216
61.3666,192
61.4274,172
61.4881,169
61.5489,184
61.6096,180
61.6704,211
61.7311,190
61.7919,219
61.8526,182
61.9133,185
61.9741,188
62.0348,176
62.0956,190
62.1563,187
62.2171,192
62.2778,204
62.3386,179
62.3993,193
62.4601,186
62.5208,196
62.5815,174
62.6423,189
62.703,173
62.7638,175
62.8245,201
62.8853,186
62.946,173
63.0068,195
63.0675,201
63.1283,193
63.189,218
63.2497,194
63.3105,169
63.3712,158
63.432,183
63.4927,203
63.5535,177
63.6142,179
63.675,198
63.7357,175
63.7965,203
63.8572,192
63.9179,188
63.9787,179
64.0394,158
64.1002,190
64.1609,183
64.2217,205
64.2824,199
64.3432,177
64.4039,201
64.4647,180
64.5254,175
64.5861,188
64.6469,198
64.7076,202
64.7684,193
64.8291,181
64.8899,168
64.9506,186
65.0114,174
65.0721,199
65.1329,197
65.1936,171
65.2543,193
65.3151,212
65.3758,180
65.4366,186
65.4973,173
65.5581,152
65.6188,179
65.6796,180
65.7403,186
65.8011,186
65.8618,180
65.9225,211
65.9833,175
66.044,176
66.1048,172
66.1655,193
66.2263,204
66.287,189
66.3478,163
66.4085,186
66.4693,170
66.53,186
66.5907,188
66.6515,197
66.7122,205
66.773,168
66.8337,178
66.8945,179
66.9552,176
67.016,177
67.0767,189
67.1375,162
67.1982,175
67.2589,192
67.3197,180
67.3804,167
67.4412,177
67.5019,182
67.5627,190
67.6234,206
67.6842,189
67.7449,225
67.8057,199
67.8664,181
67.9271,188
67.9879,193
68.0486,197
68.1094,204
68.1701,191
68.2309,190
68.2916,196
68.3524,194
68.4131,198
68.4739,208
68.5346,188
68.5953,213
68.6561,192
68.7168,196
68.7776,233
68.8383,219
68.8991,221
68.9598,256
69.0206,285
69.0813,258
69.1421,316
69.2028,334
69.2635,344
69.3243,333
69.385,293
69.4458,325
69.5065,271
69.5673,285
69.628,237
69.6888,222
69.7495,204
69.8103,200
69.871,194
69.9317,203
69.9925,195
70.0532,179
70.114,210
70.1747,210
70.2355,184
70.2962,176
70.357,193
70.4177,192
70.4785,227
70.5392,192
70.5999,207
70.6607,232
70.7214,187
70.7822,207
70.8429,200
70.9037,182
70.9644,156
71.0252,193
71.0859,184
71.1467,175
71.2074,188
71.2681,218
71.3289,179
71.3896,214
71.4504,183
71.5111,199
71.5719,177
71.6326,185
71.6934,157
71.7541,197
71.8149,177
71.8756,183
71.9363,166
71.9971,200
72.0578,170
72.1186,174
72.1793,189
72.2401,198
72.3008,192
72.3616,168
72.4223,187
72.4831,191
72.5438,173
72.6045,167
72.6653,180
72.726,179
72.7868,179
72.8475,173
72.9083,187
72.969,189
73.0298,185
73.0905,197
73.1513,181
73.212,184
73.2727,181
73.3335,168
73.3942,192
73.455,177
73.5157,183
73.5765,189
73.6372,184
73.698,191
73.7587,206
73.8195,181
73.8802,190
73.9409,178
74.0017,200
74.0624,160
74.1232,179
74.1839,204
74.2447,199
74.3054,174
74.3662,180
74.4269,179
74.4877,195
74.5484,189
74.6091,195
74.6699,185
74.7306,179
74.7914,185
74.8521,174
74.9129,197
74.9736,178
75.0344,191
75.0951,191
75.1559,193
75.2166,211
75.2773,206
75.3381,216
75.3988,213
75.4596,194
75.5203,205
75.5811,201
75.6418,193
75.7026,218
75.7633,236
75.8241,240
75.8848,232
75.9455,219
76.0063,247
76.067,263
76.1278,296
76.1885,340
76.2493,311
76.31,360
76.3708,403
76.4315,436
76.4923,482
76.553,455
76.6137,483
76.6745,467
76.7352,436
76.796,415
76.8567,370
76.9175,319
76.9782,282
77.039,270
77.0997,257
77.1605,246
77.2212,253
77.2819,233
77.3427,225
77.4034,221
77.4642,215
77.5249,203
77.5857,211
77.6464,209
77.7072,194
77.7679,235
77.8287,223
77.8894,207
77.9501,206
78.0109,194
78.0716,213
78.1324,202
78.1931,218
78.2539,232
78.3146,210
78.3754,260
78.4361,266
78.4969,243
78.5576,260
78.6183,308
78.6791,318
78.7398,346
78.8006,345
78.8613,383
78.9221,390
78.9828,408
79.0436,384
79.1043,358
79.1651,301
79.2258,301
79.2865,284
79.3473,263
79.408,263
79.4688,254
79.5295,233
79.5903,209
79.651,233
79.7118,247
79.7725,214
79.8333,199
79.894,193
79.9547,217
80.0155,202
80.0762,206
80.137,192
80.1977,173
80.2585,217
80.3192,190
80.38,173
80.4407,211
80.5015,188
80.5622,174
80.6229,173
80.6837,195
80.7444,187
80.8052,173
80.8659,182
80.9267,173
80.9874,186
81.0482,201
81.1089,208
81.1697,201
81.2304,206
81.2911,219
81.3519,169
81.4126,207
81.4734,195
81.5341,193
81.5949,178
81.6556,164
81.7164,172
81.7366,182